Trial,condition,word,response,color,color_of_words,practice01.thisRepN,practice01.thisTrialN,practice01.thisN,practice01.thisIndex,trial_pos.thisRepN,trial_pos.thisTrialN,trial_pos.thisN,trial_pos.thisIndex,trials_neg.thisRepN,trials_neg.thisTrialN,trials_neg.thisN,trials_neg.thisIndex,trial_col_pos.thisRepN,trial_col_pos.thisTrialN,trial_col_pos.thisN,trial_col_pos.thisIndex,trial_col_neg.thisRepN,trial_col_neg.thisTrialN,trial_col_neg.thisN,trial_col_neg.thisIndex,text.started,text.stopped,key_resp.keys,key_resp.rt,key_resp.started,key_resp.stopped,text_4.started,text_4.stopped,key_resp_5.keys,key_resp_5.rt,key_resp_5.started,key_resp_5.stopped,fixtation.started,fixtation.stopped,words.started,words.stopped,key_response.keys,key_response.rt,key_response.started,key_response.stopped,text_2.started,text_2.stopped,key_resp_4.keys,key_resp_4.rt,key_resp_4.started,key_resp_4.stopped,text_5.started,text_5.stopped,key_resp_6.keys,key_resp_6.rt,key_resp_6.started,key_resp_6.stopped,fix_2.started,fix_2.stopped,word_2.started,word_2.stopped,key_resp_2.keys,key_resp_2.started,key_resp_2.stopped,key_resp_2.rt,text_3.started,text_3.stopped,key_resp_3.keys,key_resp_3.rt,key_resp_3.started,key_resp_3.stopped,participant,session,date,expName,psychopyVersion,frameRate,
,,,,,,,,,,,,,,,,,,,,,,,,,,15.742442750022747,None,space,12.13167304196395,15.742442750022747,None,,,,,,,,,,,,,,,,,,,,,,,,,,,,,,,,,,,,,,,,,1,001,2021_Dec_01_1428,myproject,2021.2.3,59.995155392726744,
,,,,,,,,,,,,,,,,,,,,,,,,,,,,,,,,27.902781957993284,None,space,1.8485717909643427,27.902781957993284,None,,,,,,,,,,,,,,,,,,,,,,,,,,,,,,,,,,,1,001,2021_Dec_01_1428,myproject,2021.2.3,59.995155392726744,
9,negative,sad,n',"(0, 100, 0)",,0,0,0,8,,,,,,,,,,,,,,,,,,,,,,,,,,,,,29.79958820802858,30.80297029198846,30.886283416999504,None,n,0.8292544999858364,30.886283416999504,None,,,,,,,,,,,,,,,,,,,,,,,,,,,1,001,2021_Dec_01_1428,myproject,2021.2.3,59.995155392726744,
2,positive,curious,p',"(0, 100, 0)",,0,1,1,1,,,,,,,,,,,,,,,,,,,,,,,,,,,,,31.736429332988337,32.73607266700128,32.81963308301056,None,p,0.8506294580292888,32.81963308301056,None,,,,,,,,,,,,,,,,,,,,,,,,,,,1,001,2021_Dec_01_1428,myproject,2021.2.3,59.995155392726744,
6,neutral,movement,q',"(0, 100, 0)",,0,2,2,5,,,,,,,,,,,,,,,,,,,,,,,,,,,,,33.702671458013356,34.7028285000124,34.78660829202272,None,q,0.9308303329744376,34.78660829202272,None,,,,,,,,,,,,,,,,,,,,,,,,,,,1,001,2021_Dec_01_1428,myproject,2021.2.3,59.995155392726744,
1,positive,energetic,p',"(0, 100, 0)",,0,3,3,0,,,,,,,,,,,,,,,,,,,,,,,,,,,,,35.736185542016756,36.73694324999815,36.81993433297612,None,p,0.5863038329989649,36.81993433297612,None,,,,,,,,,,,,,,,,,,,,,,,,,,,1,001,2021_Dec_01_1428,myproject,2021.2.3,59.995155392726744,
None,None,None,None,None,,0,4,4,10,,,,,,,,,,,,,,,,,,,,,,,,,,,,,37.43683525000233,38.436556999979075,38.52004487498198,None,p,0.6392653330112807,38.52004487498198,None,,,,,,,,,,,,,,,,,,,,,,,,,,,1,001,2021_Dec_01_1428,myproject,2021.2.3,59.995155392726744,
7,negative,busy,n',"(0, 100, 0)",,0,5,5,6,,,,,,,,,,,,,,,,,,,,,,,,,,,,,39.186451166984625,40.18637608300196,40.26970429200446,None,None,,40.26970429200446,41.27036775002489,,,,,,,,,,,,,,,,,,,,,,,,,,,1,001,2021_Dec_01_1428,myproject,2021.2.3,59.995155392726744,
10,negative,sceptical,n',"(0, 100, 0)",,0,6,6,9,,,,,,,,,,,,,,,,,,,,,,,,,,,,,41.769818916975055,42.769622416992206,42.853292917017825,41.769818916975055,None,,42.853292917017825,43.85339887498412,,,,,,,,,,,,,,,,,,,,,,,,,,,1,001,2021_Dec_01_1428,myproject,2021.2.3,59.995155392726744,
4,neutral,blender,q',"(0, 100, 0)",,0,7,7,3,,,,,,,,,,,,,,,,,,,,,,,,,,,,,44.35370400000829,45.35354095802177,45.4369492920232,44.35370400000829,None,,45.4369492920232,46.43686000001617,,,,,,,,,,,,,,,,,,,,,,,,,,,1,001,2021_Dec_01_1428,myproject,2021.2.3,59.995155392726744,
3,positive,trusting,p',"(0, 100, 0)",,0,8,8,2,,,,,,,,,,,,,,,,,,,,,,,,,,,,,46.93710458301939,47.93675983301364,48.02027816697955,46.93710458301939,p,0.862033125013113,48.02027816697955,None,,,,,,,,,,,,,,,,,,,,,,,,,,,1,001,2021_Dec_01_1428,myproject,2021.2.3,59.995155392726744,
8,negative,ashamed,n',"(0, 100, 0)",,0,9,9,7,,,,,,,,,,,,,,,,,,,,,,,,,,,,,48.903950791980606,49.90345987502951,49.98709712497657,None,None,,49.98709712497657,50.986926582991146,,,,,,,,,,,,,,,,,,,,,,,,,,,1,001,2021_Dec_01_1428,myproject,2021.2.3,59.995155392726744,
5,neutral,participating,q',"(0, 100, 0)",,0,10,10,4,,,,,,,,,,,,,,,,,,,,,,,,,,,,,51.48695187497651,52.48730558302486,52.57059337501414,51.48695187497651,p,0.8065969159943052,52.57059337501414,None,,,,,,,,,,,,,,,,,,,,,,,,,,,1,001,2021_Dec_01_1428,myproject,2021.2.3,59.995155392726744,
,,,,,,,,,,,,,,,,,,,,,,,,,,,,,,,,,,,,,,,,,,,,,,53.40435670799343,None,space,2.9469544580206275,53.40435670799343,None,,,,,,,,,,,,,,,,,,,,,1,001,2021_Dec_01_1428,myproject,2021.2.3,59.995155392726744,
16,neutral,condition,q',"(0, 100, 0)",,,,,,0,0,0,15,,,,,,,,,,,,,,,,,,,,,,,,,56.38324104202911,57.387163707986474,57.47041175002232,None,q,0.9548124989960343,57.47041175002232,None,,,,,,,,,,,,,,,,,,,,,,,,,,,1,001,2021_Dec_01_1428,myproject,2021.2.3,59.995155392726744,
17,neutral,numbers,q',"(0, 100, 0)",,,,,,0,1,1,16,,,,,,,,,,,,,,,,,,,,,,,,,58.453883124981076,59.45395112497499,59.537416792009026,None,q,0.823951083002612,59.537416792009026,None,,,,,,,,,,,,,,,,,,,,,,,,,,,1,001,2021_Dec_01_1428,myproject,2021.2.3,59.995155392726744,
10,positive,successful,p',"(0, 100, 0)",,,,,,0,2,2,9,,,,,,,,,,,,,,,,,,,,,,,,,60.38707333302591,61.38728149997769,61.47045679198345,None,p,0.6759950830019079,61.47045679198345,None,,,,,,,,,,,,,,,,,,,,,,,,,,,1,001,2021_Dec_01_1428,myproject,2021.2.3,59.995155392726744,
11,neutral,sweter,q',"(0, 100, 0)",,,,,,0,3,3,10,,,,,,,,,,,,,,,,,,,,,,,,,62.1708781250054,63.17070220800815,63.254607458016835,None,None,,63.254607458016835,64.25438529200619,,,,,,,,,,,,,,,,,,,,,,,,,,,1,001,2021_Dec_01_1428,myproject,2021.2.3,59.995155392726744,
12,neutral,imaging,q',"(0, 100, 0)",,,,,,0,4,4,11,,,,,,,,,,,,,,,,,,,,,,,,,64.75366120802937,65.75429387501208,65.83808512502583,64.75366120802937,None,,65.83808512502583,66.83714483299991,,,,,,,,,,,,,,,,,,,,,,,,,,,1,001,2021_Dec_01_1428,myproject,2021.2.3,59.995155392726744,
7,positive,loving,p',"(0, 100, 0)",,,,,,0,5,5,6,,,,,,,,,,,,,,,,,,,,,,,,,67.35367633297574,68.35393266699975,68.43750283302506,67.35367633297574,p,0.5830099160084501,68.43750283302506,None,,,,,,,,,,,,,,,,,,,,,,,,,,,1,001,2021_Dec_01_1428,myproject,2021.2.3,59.995155392726744,
14,neutral,sentense,q',"(0, 100, 0)",,,,,,0,6,6,13,,,,,,,,,,,,,,,,,,,,,,,,,69.03772795799887,70.0377633330063,70.12035174999619,None,None,,70.12035174999619,71.12071216700133,,,,,,,,,,,,,,,,,,,,,,,,,,,1,001,2021_Dec_01_1428,myproject,2021.2.3,59.995155392726744,
6,positive,intimate,p',"(0, 100, 0)",,,,,,0,7,7,5,,,,,,,,,,,,,,,,,,,,,,,,,71.62101329199504,72.62078387499787,72.70393683301518,71.62101329199504,p,0.6455173749709502,72.70393683301518,None,,,,,,,,,,,,,,,,,,,,,,,,,,,1,001,2021_Dec_01_1428,myproject,2021.2.3,59.995155392726744,
20,neutral,designating,q',"(0, 100, 0)",,,,,,0,8,8,19,,,,,,,,,,,,,,,,,,,,,,,,,73.37099912500707,74.37047079199692,74.45412133302307,None,None,,74.45412133302307,75.45453862502472,,,,,,,,,,,,,,,,,,,,,,,,,,,1,001,2021_Dec_01_1428,myproject,2021.2.3,59.995155392726744,
1,positive,powerful,p',"(0, 100, 0)",,,,,,0,9,9,0,,,,,,,,,,,,,,,,,,,,,,,,,75.95439620799152,76.9540890000062,77.0379162079771,75.95439620799152,p,0.7127889170078561,77.0379162079771,None,,,,,,,,,,,,,,,,,,,,,,,,,,,1,001,2021_Dec_01_1428,myproject,2021.2.3,59.995155392726744,
9,positive,thankful,p',"(0, 100, 0)",,,,,,0,10,10,8,,,,,,,,,,,,,,,,,,,,,,,,,77.771084374981,78.77076099999249,78.85433912498411,None,p,0.522107207973022,78.85433912498411,None,,,,,,,,,,,,,,,,,,,,,,,,,,,1,001,2021_Dec_01_1428,myproject,2021.2.3,59.995155392726744,
3,positive,interested,p',"(0, 100, 0)",,,,,,0,11,11,2,,,,,,,,,,,,,,,,,,,,,,,,,79.40430308302166,80.40432129200781,80.4879547500168,None,p,0.5076221670024097,80.4879547500168,None,,,,,,,,,,,,,,,,,,,,,,,,,,,1,001,2021_Dec_01_1428,myproject,2021.2.3,59.995155392726744,
13,neutral,wrapping,q',"(0, 100, 0)",,,,,,0,12,12,12,,,,,,,,,,,,,,,,,,,,,,,,,81.02084512502188,82.02078679198166,82.1044965829933,None,q,0.8508753749774769,82.1044965829933,None,,,,,,,,,,,,,,,,,,,,,,,,,,,1,001,2021_Dec_01_1428,myproject,2021.2.3,59.995155392726744,
19,neutral,moderate,q',"(0, 100, 0)",,,,,,0,13,13,18,,,,,,,,,,,,,,,,,,,,,,,,,82.98743333300808,83.98751466698013,84.07128475001082,None,None,,84.07128475001082,85.07180704199709,,,,,,,,,,,,,,,,,,,,,,,,,,,1,001,2021_Dec_01_1428,myproject,2021.2.3,59.995155392726744,
2,positive,optimistic,p',"(0, 100, 0)",,,,,,0,14,14,1,,,,,,,,,,,,,,,,,,,,,,,,,85.57125616702251,86.57117462501628,86.65504220797447,85.57125616702251,p,0.5891462490544654,86.65504220797447,None,,,,,,,,,,,,,,,,,,,,,,,,,,,1,001,2021_Dec_01_1428,myproject,2021.2.3,59.995155392726744,
4,positive,content,p',"(0, 100, 0)",,,,,,0,15,15,3,,,,,,,,,,,,,,,,,,,,,,,,,87.27103524998529,88.27111124998191,88.35450920800213,None,p,0.5979837490012869,88.35450920800213,None,,,,,,,,,,,,,,,,,,,,,,,,,,,1,001,2021_Dec_01_1428,myproject,2021.2.3,59.995155392726744,
18,neutral,ceiling,q',"(0, 100, 0)",,,,,,0,16,16,17,,,,,,,,,,,,,,,,,,,,,,,,,88.97151574998861,89.97213404200738,90.05520941701252,None,q,0.7711680000065826,90.05520941701252,None,,,,,,,,,,,,,,,,,,,,,,,,,,,1,001,2021_Dec_01_1428,myproject,2021.2.3,59.995155392726744,
5,positive,excited,p',"(0, 100, 0)",,,,,,0,17,17,4,,,,,,,,,,,,,,,,,,,,,,,,,90.8542735420051,91.85502995800925,91.93813683302142,None,p,0.6041624580393545,91.93813683302142,None,,,,,,,,,,,,,,,,,,,,,,,,,,,1,001,2021_Dec_01_1428,myproject,2021.2.3,59.995155392726744,
8,positive,joyful,p',"(0, 100, 0)",,,,,,0,18,18,7,,,,,,,,,,,,,,,,,,,,,,,,,92.5717780829873,93.57132170797559,93.65444499999285,None,p,0.4600088329752907,93.65444499999285,None,,,,,,,,,,,,,,,,,,,,,,,,,,,1,001,2021_Dec_01_1428,myproject,2021.2.3,59.995155392726744,
15,neutral,language,q',"(0, 100, 0)",,,,,,0,19,19,14,,,,,,,,,,,,,,,,,,,,,,,,,94.1380626669852,95.13850541698048,95.22103204199811,None,None,,95.22103204199811,96.22205849998863,,,,,,,,,,,,,,,,,,,,,,,,,,,1,001,2021_Dec_01_1428,myproject,2021.2.3,59.995155392726744,
14,negative,anxious,n',"(0, 100, 0)",,,,,,,,,,0,0,0,13,,,,,,,,,,,,,,,,,,,,,96.73399795801379,97.73793170799036,97.82133725000313,96.73399795801379,n,0.7311068749986589,97.82133725000313,None,,,,,,,,,,,,,,,,,,,,,,,,,,,1,001,2021_Dec_01_1428,myproject,2021.2.3,59.995155392726744,
10,neutral,letter,q',"(0, 100, 0)",,,,,,,,,,0,1,1,9,,,,,,,,,,,,,,,,,,,,,98.57156808301806,99.5710225829971,99.6547947920044,None,q,0.8175144160049967,99.6547947920044,None,,,,,,,,,,,,,,,,,,,,,,,,,,,1,001,2021_Dec_01_1428,myproject,2021.2.3,59.995155392726744,
20,negative,jealous,n',"(0, 100, 0)",,,,,,,,,,0,2,2,19,,,,,,,,,,,,,,,,,,,,,100.50546908302931,101.504875292012,101.58872945798794,None,n,0.6375781249953434,101.58872945798794,None,,,,,,,,,,,,,,,,,,,,,,,,,,,1,001,2021_Dec_01_1428,myproject,2021.2.3,59.995155392726744,
15,negative,bored,n',"(0, 100, 0)",,,,,,,,,,0,3,3,14,,,,,,,,,,,,,,,,,,,,,102.25477150001097,103.25537262501894,103.33861054200679,None,n,0.8018551669665612,103.33861054200679,None,,,,,,,,,,,,,,,,,,,,,,,,,,,1,001,2021_Dec_01_1428,myproject,2021.2.3,59.995155392726744,
19,negative,helpless,n',"(0, 100, 0)",,,,,,,,,,0,4,4,18,,,,,,,,,,,,,,,,,,,,,104.1718694579904,105.17196054197848,105.2558129579993,None,n,0.8035415419726633,105.2558129579993,None,,,,,,,,,,,,,,,,,,,,,,,,,,,1,001,2021_Dec_01_1428,myproject,2021.2.3,59.995155392726744,
13,negative,lonely,n',"(0, 100, 0)",,,,,,,,,,0,5,5,12,,,,,,,,,,,,,,,,,,,,,106.08822237502318,107.08864974998869,107.17259370797547,None,n,0.8229307910078205,107.17259370797547,None,,,,,,,,,,,,,,,,,,,,,,,,,,,1,001,2021_Dec_01_1428,myproject,2021.2.3,59.995155392726744,
2,neutral,syllabus,q',"(0, 100, 0)",,,,,,,,,,0,6,6,1,,,,,,,,,,,,,,,,,,,,,108.0219677920104,109.02177350001875,109.10583070799476,None,q,0.8476461669779383,109.10583070799476,None,,,,,,,,,,,,,,,,,,,,,,,,,,,1,001,2021_Dec_01_1428,myproject,2021.2.3,59.995155392726744,
8,neutral,monotone,q',"(0, 100, 0)",,,,,,,,,,0,7,7,7,,,,,,,,,,,,,,,,,,,,,109.97180829197168,110.97195529198507,111.05515562498476,None,None,,111.05515562498476,112.05528987501748,,,,,,,,,,,,,,,,,,,,,,,,,,,1,001,2021_Dec_01_1428,myproject,2021.2.3,59.995155392726744,
1,neutral,design,q',"(0, 100, 0)",,,,,,,,,,0,8,8,0,,,,,,,,,,,,,,,,,,,,,112.55601495801238,113.55541862500831,113.6383622920257,112.55601495801238,q,0.7763750409940258,113.6383622920257,None,,,,,,,,,,,,,,,,,,,,,,,,,,,1,001,2021_Dec_01_1428,myproject,2021.2.3,59.995155392726744,
6,neutral,joining,q',"(0, 100, 0)",,,,,,,,,,0,9,9,5,,,,,,,,,,,,,,,,,,,,,114.43849070800934,115.43860333302291,115.52211449999595,None,None,,115.52211449999595,116.52189675002592,,,,,,,,,,,,,,,,,,,,,,,,,,,1,001,2021_Dec_01_1428,myproject,2021.2.3,59.995155392726744,
16,negative,vulnerable,n',"(0, 100, 0)",,,,,,,,,,0,10,10,15,,,,,,,,,,,,,,,,,,,,,117.02195958298398,118.02196491701761,118.105422542023,117.02195958298398,n,0.8453648330178112,118.105422542023,None,,,,,,,,,,,,,,,,,,,,,,,,,,,1,001,2021_Dec_01_1428,myproject,2021.2.3,59.995155392726744,
4,neutral,window,q',"(0, 100, 0)",,,,,,,,,,0,11,11,3,,,,,,,,,,,,,,,,,,,,,118.97177779197227,119.97254191699903,120.05608454201138,None,None,,120.05608454201138,121.05592312500812,,,,,,,,,,,,,,,,,,,,,,,,,,,1,001,2021_Dec_01_1428,myproject,2021.2.3,59.995155392726744,
5,neutral,stone,q',"(0, 100, 0)",,,,,,,,,,0,12,12,4,,,,,,,,,,,,,,,,,,,,,121.55615479202243,122.55557420797413,122.63877112499904,121.55615479202243,q,0.5758064169785939,122.63877112499904,None,,,,,,,,,,,,,,,,,,,,,,,,,,,1,001,2021_Dec_01_1428,myproject,2021.2.3,59.995155392726744,
18,negative,scared,n',"(0, 100, 0)",,,,,,,,,,0,13,13,17,,,,,,,,,,,,,,,,,,,,,123.23883020802168,124.23873004200868,124.32240912498673,None,n,0.800210666959174,124.32240912498673,None,,,,,,,,,,,,,,,,,,,,,,,,,,,1,001,2021_Dec_01_1428,myproject,2021.2.3,59.995155392726744,
12,negative,hurt,n',"(0, 100, 0)",,,,,,,,,,0,14,14,11,,,,,,,,,,,,,,,,,,,,,125.15575233299751,126.1562833749922,126.23890291701537,None,n,0.6836994159966707,126.23890291701537,None,,,,,,,,,,,,,,,,,,,,,,,,,,,1,001,2021_Dec_01_1428,myproject,2021.2.3,59.995155392726744,
11,negative,depressed,n',"(0, 100, 0)",,,,,,,,,,0,15,15,10,,,,,,,,,,,,,,,,,,,,,126.95579487498617,127.95585458300775,128.03974816697882,None,n,0.613145750015974,128.03974816697882,None,,,,,,,,,,,,,,,,,,,,,,,,,,,1,001,2021_Dec_01_1428,myproject,2021.2.3,59.995155392726744,
3,neutral,geography,q',"(0, 100, 0)",,,,,,,,,,0,16,16,2,,,,,,,,,,,,,,,,,,,,,128.67253370798426,129.67300533299567,129.75627491698833,None,q,0.8926265419577248,129.75627491698833,None,,,,,,,,,,,,,,,,,,,,,,,,,,,1,001,2021_Dec_01_1428,myproject,2021.2.3,59.995155392726744,
9,neutral,formula,q',"(0, 100, 0)",,,,,,,,,,0,17,17,8,,,,,,,,,,,,,,,,,,,,,130.67271237500245,131.6732652920182,131.75679445802234,None,q,0.6111853750189766,131.75679445802234,None,,,,,,,,,,,,,,,,,,,,,,,,,,,1,001,2021_Dec_01_1428,myproject,2021.2.3,59.995155392726744,
7,neutral,running,q',"(0, 100, 0)",,,,,,,,,,0,18,18,6,,,,,,,,,,,,,,,,,,,,,132.38930224999785,133.38916704198346,133.47252358298283,None,None,,133.47252358298283,134.47323391702957,,,,,,,,,,,,,,,,,,,,,,,,,,,1,001,2021_Dec_01_1428,myproject,2021.2.3,59.995155392726744,
17,negative,guilty,n',"(0, 100, 0)",,,,,,,,,,0,19,19,16,,,,,,,,,,,,,,,,,,,,,134.97275308298413,135.97275262500625,136.05586733302334,134.97275308298413,n,0.6811285000294447,136.05586733302334,None,,,,,,,,,,,,,,,,,,,,,,,,,,,1,001,2021_Dec_01_1428,myproject,2021.2.3,59.995155392726744,
21,negative,vulnerable,n',"(0, 100, 0)",,,,,,,,,,0,20,20,20,,,,,,,,,,,,,,,,,,,,,136.75633879197994,137.75631775002694,137.83965816698037,None,None,,137.83965816698037,138.83990550000453,,,,,,,,,,,,,,,,,,,,,,,,,,,1,001,2021_Dec_01_1428,myproject,2021.2.3,59.995155392726744,
,,,,,,,,,,,,,,,,,,,,,,,,,,,,,,,,,,,,,,,,,,,,,,,,,,,,139.33977204200346,None,space,2.0559978329692967,139.33977204200346,None,,,,,,,,,,,,,,,1,001,2021_Dec_01_1428,myproject,2021.2.3,59.995155392726744,
1,positive,proud,p',,"(0, 0, 100)",,,,,,,,,,,,,0,0,0,0,,,,,,,,,,,,,,,,,,,,,,,,,,,,,,,,,,,,,141.43770758301252,142.43923825002275,142.5231509580044,None,None,142.5231509580044,143.52281100000255,,,,,,,,1,001,2021_Dec_01_1428,myproject,2021.2.3,59.995155392726744,
2,positive,glad,p',,"(0, 100, 0)",,,,,,,,,,,,,0,1,1,1,,,,,,,,,,,,,,,,,,,,,,,,,,,,,,,,,,,,,144.0230820000288,145.02314641699195,145.10683145798976,144.0230820000288,p,145.10683145798976,None,0.7454187499824911,,,,,,,1,001,2021_Dec_01_1428,myproject,2021.2.3,59.995155392726744,
3,positive,happy,p',,"(100, 0, 0)",,,,,,,,,,,,,0,2,2,2,,,,,,,,,,,,,,,,,,,,,,,,,,,,,,,,,,,,,145.873073499999,146.8729590420262,146.95642000000225,None,p,146.95642000000225,None,0.500406541978009,,,,,,,1,001,2021_Dec_01_1428,myproject,2021.2.3,59.995155392726744,
4,positive,playful,p',,"(0, 0, 100)",,,,,,,,,,,,,0,3,3,3,,,,,,,,,,,,,,,,,,,,,,,,,,,,,,,,,,,,,147.48949745798018,148.48981858300976,148.57329254201613,None,p,148.57329254201613,None,0.48963883297983557,,,,,,,1,001,2021_Dec_01_1428,myproject,2021.2.3,59.995155392726744,
5,positive,amazed,p',,"(0, 100, 0)",,,,,,,,,,,,,0,4,4,4,,,,,,,,,,,,,,,,,,,,,,,,,,,,,,,,,,,,,149.09061391698197,150.09012687497307,150.1737084169872,None,p,150.1737084169872,None,0.5123764989548363,,,,,,,1,001,2021_Dec_01_1428,myproject,2021.2.3,59.995155392726744,
6,positive,valued,p',,"(100, 0, 0)",,,,,,,,,,,,,0,5,5,5,,,,,,,,,,,,,,,,,,,,,,,,,,,,,,,,,,,,,150.70665875001578,151.70626066700788,151.78945733298315,None,p,151.78945733298315,None,0.656536833033897,,,,,,,1,001,2021_Dec_01_1428,myproject,2021.2.3,59.995155392726744,
7,positive,respected,p',,"(0, 0, 100)",,,,,,,,,,,,,0,6,6,6,,,,,,,,,,,,,,,,,,,,,,,,,,,,,,,,,,,,,152.47310108301463,153.4730666669784,153.55686620797496,None,p,153.55686620797496,None,0.5350754159735516,,,,,,,1,001,2021_Dec_01_1428,myproject,2021.2.3,59.995155392726744,
8,positive,free,p',,"(0, 100, 0)",,,,,,,,,,,,,0,7,7,7,,,,,,,,,,,,,,,,,,,,,,,,,,,,,,,,,,,,,154.12390116701135,155.1239315419807,155.2069221669808,None,p,155.2069221669808,None,0.3851748749730177,,,,,,,1,001,2021_Dec_01_1428,myproject,2021.2.3,59.995155392726744,
9,positive,joyful,p',,"(100, 0, 0)",,,,,,,,,,,,,0,8,8,8,,,,,,,,,,,,,,,,,,,,,,,,,,,,,,,,,,,,,155.62370016699424,156.62396962498315,156.7073224170017,None,p,156.7073224170017,None,0.4046477500232868,,,,,,,1,001,2021_Dec_01_1428,myproject,2021.2.3,59.995155392726744,
10,positive,calm,p',,"(0, 0, 100)",,,,,,,,,,,,,0,9,9,9,,,,,,,,,,,,,,,,,,,,,,,,,,,,,,,,,,,,,157.14028629200766,158.13985945802415,158.22306970797945,None,p,158.22306970797945,None,0.43889741599559784,,,,,,,1,001,2021_Dec_01_1428,myproject,2021.2.3,59.995155392726744,
11,neutral,language,q',,"(0, 100, 0)",,,,,,,,,,,,,0,10,10,10,,,,,,,,,,,,,,,,,,,,,,,,,,,,,,,,,,,,,158.69022858300013,159.68977416702546,159.77324654202675,None,p,159.77324654202675,None,0.45174441603012383,,,,,,,1,001,2021_Dec_01_1428,myproject,2021.2.3,59.995155392726744,
12,neutral,condition,q',,"(100, 0, 0)",,,,,,,,,,,,,0,11,11,11,,,,,,,,,,,,,,,,,,,,,,,,,,,,,,,,,,,,,160.25662175001344,161.2569337079767,161.34094079199713,None,None,161.34094079199713,162.34079795802245,,,,,,,,1,001,2021_Dec_01_1428,myproject,2021.2.3,59.995155392726744,
13,neutral,numbers,q',,"(0, 0, 100)",,,,,,,,,,,,,0,12,12,12,,,,,,,,,,,,,,,,,,,,,,,,,,,,,,,,,,,,,162.84052775002783,163.84091741702287,163.9239482919802,162.84052775002783,q,163.9239482919802,None,0.605222457961645,,,,,,,1,001,2021_Dec_01_1428,myproject,2021.2.3,59.995155392726744,
14,neutral,ceiling,q',,"(0, 100, 0)",,,,,,,,,,,,,0,13,13,13,,,,,,,,,,,,,,,,,,,,,,,,,,,,,,,,,,,,,164.55684529198334,165.55675491702277,165.64002758299466,None,q,165.64002758299466,None,0.5572302910150029,,,,,,,1,001,2021_Dec_01_1428,myproject,2021.2.3,59.995155392726744,
15,neutral,moderate,q',,"(100, 0, 0)",,,,,,,,,,,,,0,14,14,14,,,,,,,,,,,,,,,,,,,,,,,,,,,,,,,,,,,,,166.2242352499743,167.2234976249747,167.30708133301232,None,q,167.30708133301232,None,0.7379439999931492,,,,,,,1,001,2021_Dec_01_1428,myproject,2021.2.3,59.995155392726744,
16,neutral,designating,q',,"(0, 0, 100)",,,,,,,,,,,,,0,15,15,15,,,,,,,,,,,,,,,,,,,,,,,,,,,,,,,,,,,,,168.07352137501584,169.07338304200675,169.15700504201232,None,q,169.15700504201232,None,0.6473387500154786,,,,,,,1,001,2021_Dec_01_1428,myproject,2021.2.3,59.995155392726744,
17,neutral,participating,q',,"(0, 100, 0)",,,,,,,,,,,,,0,16,16,16,,,,,,,,,,,,,,,,,,,,,,,,,,,,,,,,,,,,,169.82410929200705,170.82384004199412,170.90696066699456,None,p,170.90696066699456,None,0.6381795830093324,,,,,,,1,001,2021_Dec_01_1428,myproject,2021.2.3,59.995155392726744,
18,neutral,collecting,q',,"(100, 0, 0)",,,,,,,,,,,,,0,17,17,17,,,,,,,,,,,,,,,,,,,,,,,,,,,,,,,,,,,,,171.57383187499363,172.57390787499025,172.65740362502402,None,q,172.65740362502402,None,0.7506996659794822,,,,,,,1,001,2021_Dec_01_1428,myproject,2021.2.3,59.995155392726744,
19,neutral,telephone,q',,"(100, 0, 0)",,,,,,,,,,,,,0,18,18,18,,,,,,,,,,,,,,,,,,,,,,,,,,,,,,,,,,,,,173.44085349998204,174.44036595802754,174.5238553750096,None,q,174.5238553750096,None,0.6503154159872793,,,,,,,1,001,2021_Dec_01_1428,myproject,2021.2.3,59.995155392726744,
20,neutral,carbonate,q',,"(100, 0, 0)",,,,,,,,,,,,,0,19,19,19,,,,,,,,,,,,,,,,,,,,,,,,,,,,,,,,,,,,,175.20722433301853,176.20711174997268,176.29087845800677,None,q,176.29087845800677,None,0.6255332499858923,,,,,,,1,001,2021_Dec_01_1428,myproject,2021.2.3,59.995155392726744,
6,neutral,style,q',,"(100, 0, 0)",,,,,,,,,,,,,,,,,0,0,0,5,,,,,,,,,,,,,,,,,,,,,,,,,,,,,,,,,176.95651491702301,177.9570564579917,178.04126379202353,None,q,178.04126379202353,None,0.580970624985639,,,,,,,1,001,2021_Dec_01_1428,myproject,2021.2.3,59.995155392726744,
2,neutral,syllabus,q',,"(0, 100, 0)",,,,,,,,,,,,,,,,,0,1,1,1,,,,,,,,,,,,,,,,,,,,,,,,,,,,,,,,,178.64069183298852,179.64090991701232,179.7236371670151,None,q,179.7236371670151,None,0.7478890829952434,,,,,,,1,001,2021_Dec_01_1428,myproject,2021.2.3,59.995155392726744,
13,negative,stressed,n',,"(0, 0, 100)",,,,,,,,,,,,,,,,,0,2,2,12,,,,,,,,,,,,,,,,,,,,,,,,,,,,,,,,,180.49091462499928,181.49058941699332,181.5739636250073,None,n,181.5739636250073,None,0.662604957993608,,,,,,,1,001,2021_Dec_01_1428,myproject,2021.2.3,59.995155392726744,
9,neutral,photo,q',,"(100, 0, 0)",,,,,,,,,,,,,,,,,0,3,3,8,,,,,,,,,,,,,,,,,,,,,,,,,,,,,,,,,182.25773862499045,183.2581866250257,183.34063329198398,None,q,183.34063329198398,None,0.6066834999946877,,,,,,,1,001,2021_Dec_01_1428,myproject,2021.2.3,59.995155392726744,
20,negative,fearful,n',,"(100, 0, 0)",,,,,,,,,,,,,,,,,0,4,4,19,,,,,,,,,,,,,,,,,,,,,,,,,,,,,,,,,183.9740843329928,184.97477641701698,185.05788720800774,None,n,185.05788720800774,None,0.6295941239804961,,,,,,,1,001,2021_Dec_01_1428,myproject,2021.2.3,59.995155392726744,
12,negative,annoyed,n',,"(100, 0, 0)",,,,,,,,,,,,,,,,,0,5,5,11,,,,,,,,,,,,,,,,,,,,,,,,,,,,,,,,,185.7074677500059,186.70776587497676,186.79051395802526,None,n,186.79051395802526,None,0.6470813329797238,,,,,,,1,001,2021_Dec_01_1428,myproject,2021.2.3,59.995155392726744,
11,negative,critical,n',,"(0, 100, 0)",,,,,,,,,,,,,,,,,0,6,6,10,,,,,,,,,,,,,,,,,,,,,,,,,,,,,,,,,187.4577661670046,188.45753166702343,188.54079712502426,None,p,188.54079712502426,None,0.8325573329930194,,,,,,,1,001,2021_Dec_01_1428,myproject,2021.2.3,59.995155392726744,
17,negative,grief,n',,"(0, 100, 0)",,,,,,,,,,,,,,,,,0,7,7,16,,,,,,,,,,,,,,,,,,,,,,,,,,,,,,,,,189.39095358300256,190.39059558301233,190.47445833298843,None,n,190.47445833298843,None,0.6658733740332536,,,,,,,1,001,2021_Dec_01_1428,myproject,2021.2.3,59.995155392726744,
3,neutral,geography,q',,"(100, 0, 0)",,,,,,,,,,,,,,,,,0,8,8,2,,,,,,,,,,,,,,,,,,,,,,,,,,,,,,,,,191.1580687080277,192.15796791698085,192.24130200000945,None,n,192.24130200000945,None,0.6252757079782896,,,,,,,1,001,2021_Dec_01_1428,myproject,2021.2.3,59.995155392726744,
15,negative,hostile,n',,"(100, 0, 0)",,,,,,,,,,,,,,,,,0,9,9,14,,,,,,,,,,,,,,,,,,,,,,,,,,,,,,,,,192.8909166670055,193.89088025002275,193.9749912500265,None,None,193.9749912500265,194.97472654201556,,,,,,,,1,001,2021_Dec_01_1428,myproject,2021.2.3,59.995155392726744,
8,neutral,seventeen,q',,"(0, 100, 0)",,,,,,,,,,,,,,,,,0,10,10,7,,,,,,,,,,,,,,,,,,,,,,,,,,,,,,,,,195.47435029200278,196.47429133299738,196.55763649998698,195.47435029200278,q,196.55763649998698,None,0.8357881249976344,,,,,,,1,001,2021_Dec_01_1428,myproject,2021.2.3,59.995155392726744,
19,negative,tired,n',,"(100, 0, 0)",,,,,,,,,,,,,,,,,0,11,11,18,,,,,,,,,,,,,,,,,,,,,,,,,,,,,,,,,197.42471824999666,198.4250937079778,198.5081636250252,None,n,198.5081636250252,None,0.7382567910244688,,,,,,,1,001,2021_Dec_01_1428,myproject,2021.2.3,59.995155392726744,
4,neutral,vegetable,q',,"(0, 0, 100)",,,,,,,,,,,,,,,,,0,12,12,3,,,,,,,,,,,,,,,,,,,,,,,,,,,,,,,,,199.27461687498726,200.27449187502498,200.3583575420198,None,q,200.3583575420198,None,0.7413646659697406,,,,,,,1,001,2021_Dec_01_1428,myproject,2021.2.3,59.995155392726744,
16,negative,embarrassed,n',,"(0, 0, 100)",,,,,,,,,,,,,,,,,0,13,13,15,,,,,,,,,,,,,,,,,,,,,,,,,,,,,,,,,201.12446141702821,202.1246328750276,202.20860920799896,None,n,202.20860920799896,None,0.8659193749772385,,,,,,,1,001,2021_Dec_01_1428,myproject,2021.2.3,59.995155392726744,
1,neutral,design,q',,"(0, 0, 100)",,,,,,,,,,,,,,,,,0,14,14,0,,,,,,,,,,,,,,,,,,,,,,,,,,,,,,,,,203.10761354200076,204.10782037500758,204.1913085830165,None,q,204.1913085830165,None,0.5511117909918539,,,,,,,1,001,2021_Dec_01_1428,myproject,2021.2.3,59.995155392726744,
7,neutral,mapping,q',,"(0, 0, 100)",,,,,,,,,,,,,,,,,0,15,15,6,,,,,,,,,,,,,,,,,,,,,,,,,,,,,,,,,204.77487216697773,205.77423612499842,205.8577839169884,None,q,205.8577839169884,None,0.5939283330226317,,,,,,,1,001,2021_Dec_01_1428,myproject,2021.2.3,59.995155392726744,
14,negative,guilty,n',,"(0, 100, 0)",,,,,,,,,,,,,,,,,0,16,16,13,,,,,,,,,,,,,,,,,,,,,,,,,,,,,,,,,206.4745784170227,207.47454645799007,207.55790891702054,None,n,207.55790891702054,None,0.6940228749881499,,,,,,,1,001,2021_Dec_01_1428,myproject,2021.2.3,59.995155392726744,
10,neutral,editing,q',,"(0, 0, 100)",,,,,,,,,,,,,,,,,0,17,17,9,,,,,,,,,,,,,,,,,,,,,,,,,,,,,,,,,208.274467249983,209.2747204999905,209.35885633301223,None,q,209.35885633301223,None,0.6269959579803981,,,,,,,1,001,2021_Dec_01_1428,myproject,2021.2.3,59.995155392726744,
18,negative,victimised,n',,"(100, 0, 0)",,,,,,,,,,,,,,,,,0,18,18,17,,,,,,,,,,,,,,,,,,,,,,,,,,,,,,,,,210.00840216700453,211.00862354197307,211.09195854200516,None,None,211.09195854200516,212.09190820797812,,,,,,,,1,001,2021_Dec_01_1428,myproject,2021.2.3,59.995155392726744,
5,neutral,glasses,q',,"(0, 100, 0)",,,,,,,,,,,,,,,,,0,19,19,4,,,,,,,,,,,,,,,,,,,,,,,,,,,,,,,,,212.59171233302914,213.5916996669839,213.67530158301815,212.59171233302914,q,213.67530158301815,None,0.7153455420047976,,,,,,,1,001,2021_Dec_01_1428,myproject,2021.2.3,59.995155392726744,
,,,,,,,,,,,,,,,,,,,,,,,,,,,,,,,,,,,,,,,,,,,,,,,,,,,,,,,,,,,,,,,,,,214.40908695798134,None,space,3.3655453749815933,214.40908695798134,None,1,001,2021_Dec_01_1428,myproject,2021.2.3,59.995155392726744,
