Trial,condition,word,response,color,color_of_words,practice01.thisRepN,practice01.thisTrialN,practice01.thisN,practice01.thisIndex,trial_pos.thisRepN,trial_pos.thisTrialN,trial_pos.thisN,trial_pos.thisIndex,trials_neg.thisRepN,trials_neg.thisTrialN,trials_neg.thisN,trials_neg.thisIndex,trial_col_pos.thisRepN,trial_col_pos.thisTrialN,trial_col_pos.thisN,trial_col_pos.thisIndex,trial_col_neg.thisRepN,trial_col_neg.thisTrialN,trial_col_neg.thisN,trial_col_neg.thisIndex,text.started,text.stopped,key_resp.keys,key_resp.rt,key_resp.started,key_resp.stopped,text_4.started,text_4.stopped,key_resp_5.keys,key_resp_5.rt,key_resp_5.started,key_resp_5.stopped,fixtation.started,fixtation.stopped,words.started,words.stopped,key_response.keys,key_response.started,key_response.stopped,key_response.rt,text_2.started,text_2.stopped,key_resp_4.keys,key_resp_4.rt,key_resp_4.started,key_resp_4.stopped,text_5.started,text_5.stopped,key_resp_6.keys,key_resp_6.rt,key_resp_6.started,key_resp_6.stopped,fix_2.started,fix_2.stopped,word_2.started,word_2.stopped,key_resp_2.keys,key_resp_2.started,key_resp_2.stopped,key_resp_2.rt,text_3.started,text_3.stopped,key_resp_3.keys,key_resp_3.rt,key_resp_3.started,key_resp_3.stopped,participant,session,date,expName,psychopyVersion,frameRate,
,,,,,,,,,,,,,,,,,,,,,,,,,,10.754156749986578,None,space,11.409413957968354,10.754156749986578,None,,,,,,,,,,,,,,,,,,,,,,,,,,,,,,,,,,,,,,,,,3,001,2021_Dec_01_1438,myproject,2021.2.3,59.80096743574194,
,,,,,,,,,,,,,,,,,,,,,,,,,,,,,,,,22.189759958011564,None,space,2.459927499992773,22.189759958011564,None,,,,,,,,,,,,,,,,,,,,,,,,,,,,,,,,,,,3,001,2021_Dec_01_1438,myproject,2021.2.3,59.80096743574194,
7,negative,busy,n',"(0, 100, 0)",,0,0,0,6,,,,,,,,,,,,,,,,,,,,,,,,,,,,,24.70162241597427,25.70404049998615,25.78698708297452,None,None,25.78698708297452,26.78705020796042,,,,,,,,,,,,,,,,,,,,,,,,,,,,3,001,2021_Dec_01_1438,myproject,2021.2.3,59.80096743574194,
10,negative,sceptical,n',"(0, 100, 0)",,0,1,1,9,,,,,,,,,,,,,,,,,,,,,,,,,,,,,27.287493582989555,28.286859999992885,28.370251290965825,None,None,28.370251290965825,29.371056790987495,,,,,,,,,,,,,,,,,,,,,,,,,,,,3,001,2021_Dec_01_1438,myproject,2021.2.3,59.80096743574194,
6,neutral,movement,q',"(0, 100, 0)",,0,2,2,5,,,,,,,,,,,,,,,,,,,,,,,,,,,,,29.87043754098704,30.87044500000775,30.95415308297379,29.87043754098704,None,30.95415308297379,31.954106665973086,,,,,,,,,,,,,,,,,,,,,,,,,,,,3,001,2021_Dec_01_1438,myproject,2021.2.3,59.80096743574194,
9,negative,sad,n',"(0, 100, 0)",,0,3,3,8,,,,,,,,,,,,,,,,,,,,,,,,,,,,,32.45369200001005,33.45439266599715,33.53768658300396,32.45369200001005,None,33.53768658300396,34.5373797499924,,,,,,,,,,,,,,,,,,,,,,,,,,,,3,001,2021_Dec_01_1438,myproject,2021.2.3,59.80096743574194,
1,positive,energetic,p',"(0, 100, 0)",,0,4,4,0,,,,,,,,,,,,,,,,,,,,,,,,,,,,,35.03751979098888,36.037262165977154,36.121331833011936,35.03751979098888,None,36.121331833011936,37.12082808295963,,,,,,,,,,,,,,,,,,,,,,,,,,,,3,001,2021_Dec_01_1438,myproject,2021.2.3,59.80096743574194,
8,negative,ashamed,n',"(0, 100, 0)",,0,5,5,7,,,,,,,,,,,,,,,,,,,,,,,,,,,,,37.62096933298744,38.62089525000192,38.70404558297014,37.62096933298744,None,38.70404558297014,39.7044594999752,,,,,,,,,,,,,,,,,,,,,,,,,,,,3,001,2021_Dec_01_1438,myproject,2021.2.3,59.80096743574194,
5,neutral,participating,q',"(0, 100, 0)",,0,6,6,4,,,,,,,,,,,,,,,,,,,,,,,,,,,,,40.204527665977366,41.20408925000811,41.28779937501531,40.204527665977366,None,41.28779937501531,42.28747124999063,,,,,,,,,,,,,,,,,,,,,,,,,,,,3,001,2021_Dec_01_1438,myproject,2021.2.3,59.80096743574194,
3,positive,trusting,p',"(0, 100, 0)",,0,7,7,2,,,,,,,,,,,,,,,,,,,,,,,,,,,,,42.787981208006386,43.7880659159855,43.87157366599422,42.787981208006386,None,43.87157366599422,44.87154595798347,,,,,,,,,,,,,,,,,,,,,,,,,,,,3,001,2021_Dec_01_1438,myproject,2021.2.3,59.80096743574194,
4,neutral,blender,q',"(0, 100, 0)",,0,8,8,3,,,,,,,,,,,,,,,,,,,,,,,,,,,,,45.370799999975134,46.37103008298436,46.4540645829984,45.370799999975134,None,46.4540645829984,47.45452612498775,,,,,,,,,,,,,,,,,,,,,,,,,,,,3,001,2021_Dec_01_1438,myproject,2021.2.3,59.80096743574194,
2,positive,curious,p',"(0, 100, 0)",,0,9,9,1,,,,,,,,,,,,,,,,,,,,,,,,,,,,,47.95527500001481,48.95454358297866,49.0378914999892,47.95527500001481,None,49.0378914999892,50.03767629095819,,,,,,,,,,,,,,,,,,,,,,,,,,,,3,001,2021_Dec_01_1438,myproject,2021.2.3,59.80096743574194,
None,None,None,None,None,,0,10,10,10,,,,,,,,,,,,,,,,,,,,,,,,,,,,,50.53783579100855,51.53752320801141,51.62097462499514,50.53783579100855,p,51.62097462499514,None,0.8779647499904968,,,,,,,,,,,,,,,,,,,,,,,,,,,3,001,2021_Dec_01_1438,myproject,2021.2.3,59.80096743574194,
,,,,,,,,,,,,,,,,,,,,,,,,,,,,,,,,,,,,,,,,,,,,,,52.521781374991406,None,space,4.593707624997478,52.521781374991406,None,,,,,,,,,,,,,,,,,,,,,3,001,2021_Dec_01_1438,myproject,2021.2.3,59.80096743574194,
12,neutral,imaging,q',"(0, 100, 0)",,,,,,0,0,0,11,,,,,,,,,,,,,,,,,,,,,,,,,57.151150374964345,58.15450745797716,58.2385760829784,None,None,58.2385760829784,59.238114750012755,,,,,,,,,,,,,,,,,,,,,,,,,,,,3,001,2021_Dec_01_1438,myproject,2021.2.3,59.80096743574194,
4,positive,content,p',"(0, 100, 0)",,,,,,0,1,1,3,,,,,,,,,,,,,,,,,,,,,,,,,59.73843849997502,60.738159624976106,60.821449457958806,None,None,60.821449457958806,61.82152087497525,,,,,,,,,,,,,,,,,,,,,,,,,,,,3,001,2021_Dec_01_1438,myproject,2021.2.3,59.80096743574194,
20,neutral,designating,q',"(0, 100, 0)",,,,,,0,2,2,19,,,,,,,,,,,,,,,,,,,,,,,,,62.32200979097979,63.3215391249978,63.40481187496334,62.32200979097979,None,63.40481187496334,64.40491570800077,,,,,,,,,,,,,,,,,,,,,,,,,,,,3,001,2021_Dec_01_1438,myproject,2021.2.3,59.80096743574194,
8,positive,joyful,p',"(0, 100, 0)",,,,,,0,3,3,7,,,,,,,,,,,,,,,,,,,,,,,,,64.90505108301295,65.90476941596717,65.98817837500246,64.90505108301295,None,65.98817837500246,66.98793566599488,,,,,,,,,,,,,,,,,,,,,,,,,,,,3,001,2021_Dec_01_1438,myproject,2021.2.3,59.80096743574194,
16,neutral,condition,q',"(0, 100, 0)",,,,,,0,4,4,15,,,,,,,,,,,,,,,,,,,,,,,,,67.48835095798131,68.48834991600597,68.57144158298615,67.48835095798131,None,68.57144158298615,69.57203391595976,,,,,,,,,,,,,,,,,,,,,,,,,,,,3,001,2021_Dec_01_1438,myproject,2021.2.3,59.80096743574194,
18,neutral,ceiling,q',"(0, 100, 0)",,,,,,0,5,5,17,,,,,,,,,,,,,,,,,,,,,,,,,70.07144754100591,71.0717996659805,71.15487158298492,70.07144754100591,None,71.15487158298492,72.15490266599227,,,,,,,,,,,,,,,,,,,,,,,,,,,,3,001,2021_Dec_01_1438,myproject,2021.2.3,59.80096743574194,
14,neutral,sentense,q',"(0, 100, 0)",,,,,,0,6,6,13,,,,,,,,,,,,,,,,,,,,,,,,,72.65475183300441,73.6546934999642,73.73910095798783,72.65475183300441,None,73.73910095798783,74.73840212495998,,,,,,,,,,,,,,,,,,,,,,,,,,,,3,001,2021_Dec_01_1438,myproject,2021.2.3,59.80096743574194,
6,positive,intimate,p',"(0, 100, 0)",,,,,,0,7,7,5,,,,,,,,,,,,,,,,,,,,,,,,,75.23859508300666,76.2387574579916,76.32165024999995,75.23859508300666,None,76.32165024999995,77.3222642079927,,,,,,,,,,,,,,,,,,,,,,,,,,,,3,001,2021_Dec_01_1438,myproject,2021.2.3,59.80096743574194,
5,positive,excited,p',"(0, 100, 0)",,,,,,0,8,8,4,,,,,,,,,,,,,,,,,,,,,,,,,77.82151958299801,78.82203729101457,78.9051718749688,77.82151958299801,None,78.9051718749688,79.90541270800168,,,,,,,,,,,,,,,,,,,,,,,,,,,,3,001,2021_Dec_01_1438,myproject,2021.2.3,59.80096743574194,
2,positive,optimistic,p',"(0, 100, 0)",,,,,,0,9,9,1,,,,,,,,,,,,,,,,,,,,,,,,,80.40515962499194,81.40509316598764,81.48910800000886,80.40515962499194,p,81.48910800000886,None,0.9216018749866635,,,,,,,,,,,,,,,,,,,,,,,,,,,3,001,2021_Dec_01_1438,myproject,2021.2.3,59.80096743574194,
15,neutral,language,q',"(0, 100, 0)",,,,,,0,10,10,14,,,,,,,,,,,,,,,,,,,,,,,,,82.43899091600906,83.43911608296912,83.52254458301468,None,None,83.52254458301468,84.5222447909764,,,,,,,,,,,,,,,,,,,,,,,,,,,,3,001,2021_Dec_01_1438,myproject,2021.2.3,59.80096743574194,
1,positive,powerful,p',"(0, 100, 0)",,,,,,0,11,11,0,,,,,,,,,,,,,,,,,,,,,,,,,85.0227441249881,86.02289116597967,86.10523941600695,85.0227441249881,None,86.10523941600695,87.1062058749958,,,,,,,,,,,,,,,,,,,,,,,,,,,,3,001,2021_Dec_01_1438,myproject,2021.2.3,59.80096743574194,
10,positive,successful,p',"(0, 100, 0)",,,,,,0,12,12,9,,,,,,,,,,,,,,,,,,,,,,,,,87.60563104099128,88.60556404100498,88.68950812501134,87.60563104099128,None,88.68950812501134,89.68934108299436,,,,,,,,,,,,,,,,,,,,,,,,,,,,3,001,2021_Dec_01_1438,myproject,2021.2.3,59.80096743574194,
11,neutral,sweter,q',"(0, 100, 0)",,,,,,0,13,13,10,,,,,,,,,,,,,,,,,,,,,,,,,90.18981904099928,91.18896241596667,91.27272224996705,90.18981904099928,None,91.27272224996705,92.2728109160089,,,,,,,,,,,,,,,,,,,,,,,,,,,,3,001,2021_Dec_01_1438,myproject,2021.2.3,59.80096743574194,
9,positive,thankful,p',"(0, 100, 0)",,,,,,0,14,14,8,,,,,,,,,,,,,,,,,,,,,,,,,92.77231554099126,93.77311458298936,93.85595945798559,92.77231554099126,None,93.85595945798559,94.85605733300326,,,,,,,,,,,,,,,,,,,,,,,,,,,,3,001,2021_Dec_01_1438,myproject,2021.2.3,59.80096743574194,
3,positive,interested,p',"(0, 100, 0)",,,,,,0,15,15,2,,,,,,,,,,,,,,,,,,,,,,,,,95.35572875000071,96.35602079099044,96.4395902499673,95.35572875000071,None,96.4395902499673,97.43980508297682,,,,,,,,,,,,,,,,,,,,,,,,,,,,3,001,2021_Dec_01_1438,myproject,2021.2.3,59.80096743574194,
13,neutral,wrapping,q',"(0, 100, 0)",,,,,,0,16,16,12,,,,,,,,,,,,,,,,,,,,,,,,,97.94000833301106,98.93944574997295,99.02290462498786,97.94000833301106,None,99.02290462498786,100.02297033299692,,,,,,,,,,,,,,,,,,,,,,,,,,,,3,001,2021_Dec_01_1438,myproject,2021.2.3,59.80096743574194,
17,neutral,numbers,q',"(0, 100, 0)",,,,,,0,17,17,16,,,,,,,,,,,,,,,,,,,,,,,,,100.52268762496533,101.52254020801047,101.60625591600547,100.52268762496533,None,101.60625591600547,102.60643400001572,,,,,,,,,,,,,,,,,,,,,,,,,,,,3,001,2021_Dec_01_1438,myproject,2021.2.3,59.80096743574194,
19,neutral,moderate,q',"(0, 100, 0)",,,,,,0,18,18,18,,,,,,,,,,,,,,,,,,,,,,,,,103.10634191596182,104.1060792079661,104.19000091601629,103.10634191596182,None,104.19000091601629,105.19013262499357,,,,,,,,,,,,,,,,,,,,,,,,,,,,3,001,2021_Dec_01_1438,myproject,2021.2.3,59.80096743574194,
7,positive,loving,p',"(0, 100, 0)",,,,,,0,19,19,6,,,,,,,,,,,,,,,,,,,,,,,,,105.68953237496316,106.68957654101541,106.77267387497704,105.68953237496316,None,106.77267387497704,107.77331575000426,,,,,,,,,,,,,,,,,,,,,,,,,,,,3,001,2021_Dec_01_1438,myproject,2021.2.3,59.80096743574194,
17,negative,guilty,n',"(0, 100, 0)",,,,,,,,,,0,0,0,16,,,,,,,,,,,,,,,,,,,,,108.28640595800243,109.2893742499873,109.37278624996543,108.28640595800243,None,109.37278624996543,110.37312133295927,,,,,,,,,,,,,,,,,,,,,,,,,,,,3,001,2021_Dec_01_1438,myproject,2021.2.3,59.80096743574194,
2,neutral,syllabus,q',"(0, 100, 0)",,,,,,,,,,0,1,1,1,,,,,,,,,,,,,,,,,,,,,110.8729586660047,111.87269604101311,111.9559826249606,110.8729586660047,None,111.9559826249606,112.95695437496761,,,,,,,,,,,,,,,,,,,,,,,,,,,,3,001,2021_Dec_01_1438,myproject,2021.2.3,59.80096743574194,
6,neutral,joining,q',"(0, 100, 0)",,,,,,,,,,0,2,2,5,,,,,,,,,,,,,,,,,,,,,113.45644287497271,114.45626791601535,114.5395222909865,113.45644287497271,None,114.5395222909865,115.53964400000405,,,,,,,,,,,,,,,,,,,,,,,,,,,,3,001,2021_Dec_01_1438,myproject,2021.2.3,59.80096743574194,
18,negative,scared,n',"(0, 100, 0)",,,,,,,,,,0,3,3,17,,,,,,,,,,,,,,,,,,,,,116.03969233296812,117.03949374996591,117.12290537497029,116.03969233296812,None,117.12290537497029,118.12358016596409,,,,,,,,,,,,,,,,,,,,,,,,,,,,3,001,2021_Dec_01_1438,myproject,2021.2.3,59.80096743574194,
10,neutral,letter,q',"(0, 100, 0)",,,,,,,,,,0,4,4,9,,,,,,,,,,,,,,,,,,,,,118.62380329100415,119.62308099999791,119.7062160409987,118.62380329100415,q,119.7062160409987,None,0.8860596250160597,,,,,,,,,,,,,,,,,,,,,,,,,,,3,001,2021_Dec_01_1438,myproject,2021.2.3,59.80096743574194,
5,neutral,stone,q',"(0, 100, 0)",,,,,,,,,,0,5,5,4,,,,,,,,,,,,,,,,,,,,,120.62332158297068,121.62291799997911,121.70651674998226,None,q,121.70651674998226,None,0.6877147909835912,,,,,,,,,,,,,,,,,,,,,,,,,,,3,001,2021_Dec_01_1438,myproject,2021.2.3,59.80096743574194,
15,negative,bored,n',"(0, 100, 0)",,,,,,,,,,0,6,6,14,,,,,,,,,,,,,,,,,,,,,122.42313504096819,123.42345183296129,123.50689149997197,None,None,123.50689149997197,124.50647262501298,,,,,,,,,,,,,,,,,,,,,,,,,,,,3,001,2021_Dec_01_1438,myproject,2021.2.3,59.80096743574194,
1,neutral,design,q',"(0, 100, 0)",,,,,,,,,,0,7,7,0,,,,,,,,,,,,,,,,,,,,,125.00697466597194,126.00675595796201,126.0905516659841,125.00697466597194,None,126.0905516659841,127.08966075000353,,,,,,,,,,,,,,,,,,,,,,,,,,,,3,001,2021_Dec_01_1438,myproject,2021.2.3,59.80096743574194,
20,negative,jealous,n',"(0, 100, 0)",,,,,,,,,,0,8,8,19,,,,,,,,,,,,,,,,,,,,,127.59028258296894,128.58984779100865,128.6734010829823,127.59028258296894,None,128.6734010829823,129.67334212496644,,,,,,,,,,,,,,,,,,,,,,,,,,,,3,001,2021_Dec_01_1438,myproject,2021.2.3,59.80096743574194,
7,neutral,running,q',"(0, 100, 0)",,,,,,,,,,0,9,9,6,,,,,,,,,,,,,,,,,,,,,130.17360770801315,131.17435158300214,131.2565126660047,130.17360770801315,None,131.2565126660047,132.256586375006,,,,,,,,,,,,,,,,,,,,,,,,,,,,3,001,2021_Dec_01_1438,myproject,2021.2.3,59.80096743574194,
21,negative,vulnerable,n',"(0, 100, 0)",,,,,,,,,,0,10,10,20,,,,,,,,,,,,,,,,,,,,,132.7567129160161,133.7566925829742,133.84008912497666,132.7567129160161,None,133.84008912497666,134.84033916599583,,,,,,,,,,,,,,,,,,,,,,,,,,,,3,001,2021_Dec_01_1438,myproject,2021.2.3,59.80096743574194,
14,negative,anxious,n',"(0, 100, 0)",,,,,,,,,,0,11,11,13,,,,,,,,,,,,,,,,,,,,,135.3402063329704,136.33987604099093,136.4244503749651,135.3402063329704,None,136.4244503749651,137.42461670801276,,,,,,,,,,,,,,,,,,,,,,,,,,,,3,001,2021_Dec_01_1438,myproject,2021.2.3,59.80096743574194,
9,neutral,formula,q',"(0, 100, 0)",,,,,,,,,,0,12,12,8,,,,,,,,,,,,,,,,,,,,,137.9241184159764,138.92345095798373,139.0072120410041,137.9241184159764,q,139.0072120410041,None,0.9182244169642217,,,,,,,,,,,,,,,,,,,,,,,,,,,3,001,2021_Dec_01_1438,myproject,2021.2.3,59.80096743574194,
3,neutral,geography,q',"(0, 100, 0)",,,,,,,,,,0,13,13,2,,,,,,,,,,,,,,,,,,,,,139.95701074996032,140.95689450000646,141.04027887497796,None,None,141.04027887497796,142.04025220801122,,,,,,,,,,,,,,,,,,,,,,,,,,,,3,001,2021_Dec_01_1438,myproject,2021.2.3,59.80096743574194,
12,negative,hurt,n',"(0, 100, 0)",,,,,,,,,,0,14,14,11,,,,,,,,,,,,,,,,,,,,,142.54024070798187,143.54043387499405,143.624025875004,142.54024070798187,None,143.624025875004,144.6235400409787,,,,,,,,,,,,,,,,,,,,,,,,,,,,3,001,2021_Dec_01_1438,myproject,2021.2.3,59.80096743574194,
19,negative,helpless,n',"(0, 100, 0)",,,,,,,,,,0,15,15,18,,,,,,,,,,,,,,,,,,,,,145.1236517499783,146.12397904100362,146.20703399996273,145.1236517499783,None,146.20703399996273,147.2070527499891,,,,,,,,,,,,,,,,,,,,,,,,,,,,3,001,2021_Dec_01_1438,myproject,2021.2.3,59.80096743574194,
4,neutral,window,q',"(0, 100, 0)",,,,,,,,,,0,16,16,3,,,,,,,,,,,,,,,,,,,,,147.70721837499877,148.7072702079895,148.79128516599303,147.70721837499877,q,148.79128516599303,None,0.9532159989466891,,,,,,,,,,,,,,,,,,,,,,,,,,,3,001,2021_Dec_01_1438,myproject,2021.2.3,59.80096743574194,
11,negative,depressed,n',"(0, 100, 0)",,,,,,,,,,0,17,17,10,,,,,,,,,,,,,,,,,,,,,149.77396879100706,150.77395295799943,150.85732141596964,None,n,150.85732141596964,None,0.910287541046273,,,,,,,,,,,,,,,,,,,,,,,,,,,3,001,2021_Dec_01_1438,myproject,2021.2.3,59.80096743574194,
13,negative,lonely,n',"(0, 100, 0)",,,,,,,,,,0,18,18,12,,,,,,,,,,,,,,,,,,,,,151.7904789999593,152.790644624969,152.87397016596515,None,None,152.87397016596515,153.8739433750161,,,,,,,,,,,,,,,,,,,,,,,,,,,,3,001,2021_Dec_01_1438,myproject,2021.2.3,59.80096743574194,
8,neutral,monotone,q',"(0, 100, 0)",,,,,,,,,,0,19,19,7,,,,,,,,,,,,,,,,,,,,,154.3736781660118,155.37418674997753,155.45733679097611,154.3736781660118,None,155.45733679097611,156.45732679095818,,,,,,,,,,,,,,,,,,,,,,,,,,,,3,001,2021_Dec_01_1438,myproject,2021.2.3,59.80096743574194,
16,negative,vulnerable,n',"(0, 100, 0)",,,,,,,,,,0,20,20,15,,,,,,,,,,,,,,,,,,,,,156.95766216597985,157.95786287495866,158.04071829101304,156.95766216597985,None,158.04071829101304,159.04072204098338,,,,,,,,,,,,,,,,,,,,,,,,,,,,3,001,2021_Dec_01_1438,myproject,2021.2.3,59.80096743574194,
,,,,,,,,,,,,,,,,,,,,,,,,,,,,,,,,,,,,,,,,,,,,,,,,,,,,159.54123937501572,None,space,2.648409624991473,159.54123937501572,None,,,,,,,,,,,,,,,3,001,2021_Dec_01_1438,myproject,2021.2.3,59.80096743574194,
1,positive,proud,p',,"(0, 0, 100)",,,,,,,,,,,,,0,0,0,0,,,,,,,,,,,,,,,,,,,,,,,,,,,,,,,,,,,,,162.2223725829972,163.22418945800746,163.30839320796076,None,None,163.30839320796076,164.3073137080064,,,,,,,,3,001,2021_Dec_01_1438,myproject,2021.2.3,59.80096743574194,
2,positive,glad,p',,"(0, 100, 0)",,,,,,,,,,,,,0,1,1,1,,,,,,,,,,,,,,,,,,,,,,,,,,,,,,,,,,,,,164.80735158297466,165.8076017079875,165.89125995797804,164.80735158297466,p,165.89125995797804,None,0.9444449580041692,,,,,,,3,001,2021_Dec_01_1438,myproject,2021.2.3,59.80096743574194,
3,positive,happy,p',,"(100, 0, 0)",,,,,,,,,,,,,0,2,2,2,,,,,,,,,,,,,,,,,,,,,,,,,,,,,,,,,,,,,166.85798604099546,167.8587222499773,167.9416924159741,None,None,167.9416924159741,168.94165495800553,,,,,,,,3,001,2021_Dec_01_1438,myproject,2021.2.3,59.80096743574194,
4,positive,playful,p',,"(0, 0, 100)",,,,,,,,,,,,,0,3,3,3,,,,,,,,,,,,,,,,,,,,,,,,,,,,,,,,,,,,,169.44145508296788,170.4415954159922,170.52489704097388,169.44145508296788,None,170.52489704097388,171.5250567079638,,,,,,,,3,001,2021_Dec_01_1438,myproject,2021.2.3,59.80096743574194,
5,positive,amazed,p',,"(0, 100, 0)",,,,,,,,,,,,,0,4,4,4,,,,,,,,,,,,,,,,,,,,,,,,,,,,,,,,,,,,,172.02515620796476,173.02505050000036,173.1086182500003,172.02515620796476,p,173.1086182500003,None,0.881038291961886,,,,,,,3,001,2021_Dec_01_1438,myproject,2021.2.3,59.80096743574194,
6,positive,valued,p',,"(100, 0, 0)",,,,,,,,,,,,,0,5,5,5,,,,,,,,,,,,,,,,,,,,,,,,,,,,,,,,,,,,,174.00819724996109,175.00780679099262,175.09149924997473,None,None,175.09149924997473,176.09122075000778,,,,,,,,3,001,2021_Dec_01_1438,myproject,2021.2.3,59.80096743574194,
7,positive,respected,p',,"(0, 0, 100)",,,,,,,,,,,,,0,6,6,6,,,,,,,,,,,,,,,,,,,,,,,,,,,,,,,,,,,,,176.5910473749973,177.59180095797637,177.67494150000857,176.5910473749973,None,177.67494150000857,178.67495020799106,,,,,,,,3,001,2021_Dec_01_1438,myproject,2021.2.3,59.80096743574194,
8,positive,free,p',,"(0, 100, 0)",,,,,,,,,,,,,0,7,7,7,,,,,,,,,,,,,,,,,,,,,,,,,,,,,,,,,,,,,179.17449662496801,180.17470087500988,180.25805816601496,179.17449662496801,None,180.25805816601496,181.25822641601553,,,,,,,,3,001,2021_Dec_01_1438,myproject,2021.2.3,59.80096743574194,
9,positive,joyful,p',,"(100, 0, 0)",,,,,,,,,,,,,0,8,8,8,,,,,,,,,,,,,,,,,,,,,,,,,,,,,,,,,,,,,181.7578360409825,182.75853837496834,182.8418087909813,181.7578360409825,p,182.8418087909813,None,0.8521067490219139,,,,,,,3,001,2021_Dec_01_1438,myproject,2021.2.3,59.80096743574194,
10,positive,calm,p',,"(0, 0, 100)",,,,,,,,,,,,,0,9,9,9,,,,,,,,,,,,,,,,,,,,,,,,,,,,,,,,,,,,,183.72508283297066,184.72566100000404,184.80840749997878,None,p,184.80840749997878,None,0.7693730409955606,,,,,,,3,001,2021_Dec_01_1438,myproject,2021.2.3,59.80096743574194,
11,neutral,language,q',,"(0, 100, 0)",,,,,,,,,,,,,0,10,10,10,,,,,,,,,,,,,,,,,,,,,,,,,,,,,,,,,,,,,185.6236075409688,186.62496583297616,186.69148979097372,None,None,186.69148979097372,187.69226245797472,,,,,,,,3,001,2021_Dec_01_1438,myproject,2021.2.3,59.80096743574194,
12,neutral,condition,q',,"(100, 0, 0)",,,,,,,,,,,,,0,11,11,11,,,,,,,,,,,,,,,,,,,,,,,,,,,,,,,,,,,,,188.1918369999621,189.19238883297658,189.27522345801117,188.1918369999621,q,189.27522345801117,None,0.9427414159872569,,,,,,,3,001,2021_Dec_01_1438,myproject,2021.2.3,59.80096743574194,
13,neutral,numbers,q',,"(0, 0, 100)",,,,,,,,,,,,,0,12,12,12,,,,,,,,,,,,,,,,,,,,,,,,,,,,,,,,,,,,,190.24161591596203,191.2416552079958,191.3252988329623,None,None,191.3252988329623,192.32516662497073,,,,,,,,3,001,2021_Dec_01_1438,myproject,2021.2.3,59.80096743574194,
14,neutral,ceiling,q',,"(0, 100, 0)",,,,,,,,,,,,,0,13,13,13,,,,,,,,,,,,,,,,,,,,,,,,,,,,,,,,,,,,,192.82497729099123,193.82514570798958,193.90818829101045,192.82497729099123,q,193.90818829101045,None,0.7666774580138735,,,,,,,3,001,2021_Dec_01_1438,myproject,2021.2.3,59.80096743574194,
15,neutral,moderate,q',,"(100, 0, 0)",,,,,,,,,,,,,0,14,14,14,,,,,,,,,,,,,,,,,,,,,,,,,,,,,,,,,,,,,194.69169337500352,195.69240554096177,195.77486741601024,None,q,195.77486741601024,None,0.8295422910014167,,,,,,,3,001,2021_Dec_01_1438,myproject,2021.2.3,59.80096743574194,
16,neutral,designating,q',,"(0, 0, 100)",,,,,,,,,,,,,0,15,15,15,,,,,,,,,,,,,,,,,,,,,,,,,,,,,,,,,,,,,196.62567287497222,197.62522041599732,197.70919379097177,None,None,197.70919379097177,198.7086647080141,,,,,,,,3,001,2021_Dec_01_1438,myproject,2021.2.3,59.80096743574194,
17,neutral,participating,q',,"(0, 100, 0)",,,,,,,,,,,,,0,16,16,16,,,,,,,,,,,,,,,,,,,,,,,,,,,,,,,,,,,,,199.20883387495996,200.2082470000023,200.29185387498,199.20883387495996,q,200.29185387498,None,0.8933547079795972,,,,,,,3,001,2021_Dec_01_1438,myproject,2021.2.3,59.80096743574194,
18,neutral,collecting,q',,"(100, 0, 0)",,,,,,,,,,,,,0,17,17,17,,,,,,,,,,,,,,,,,,,,,,,,,,,,,,,,,,,,,201.20876279100776,202.20905949996086,202.2928403330152,None,q,202.2928403330152,None,0.7052398329833522,,,,,,,3,001,2021_Dec_01_1438,myproject,2021.2.3,59.80096743574194,
19,neutral,telephone,q',,"(100, 0, 0)",,,,,,,,,,,,,0,18,18,18,,,,,,,,,,,,,,,,,,,,,,,,,,,,,,,,,,,,,203.025885207986,204.02533516596304,204.10914274997776,None,q,204.10914274997776,None,0.8960833749733865,,,,,,,3,001,2021_Dec_01_1438,myproject,2021.2.3,59.80096743574194,
20,neutral,carbonate,q',,"(100, 0, 0)",,,,,,,,,,,,,0,19,19,19,,,,,,,,,,,,,,,,,,,,,,,,,,,,,,,,,,,,,205.02578766597435,206.02615716599394,206.1095322080073,None,None,206.1095322080073,207.10964837501524,,,,,,,,3,001,2021_Dec_01_1438,myproject,2021.2.3,59.80096743574194,
17,negative,grief,n',,"(0, 100, 0)",,,,,,,,,,,,,,,,,0,0,0,16,,,,,,,,,,,,,,,,,,,,,,,,,,,,,,,,,207.6095423749648,208.60945812496357,208.7092755829799,207.6095423749648,None,208.7092755829799,209.70893141598208,,,,,,,,3,001,2021_Dec_01_1438,myproject,2021.2.3,59.80096743574194,
7,neutral,mapping,q',,"(0, 0, 100)",,,,,,,,,,,,,,,,,0,1,1,6,,,,,,,,,,,,,,,,,,,,,,,,,,,,,,,,,210.20886958297342,211.20911274995888,211.29239887499716,210.20886958297342,q,211.29239887499716,None,0.924958957999479,,,,,,,3,001,2021_Dec_01_1438,myproject,2021.2.3,59.80096743574194,
16,negative,embarrassed,n',,"(0, 0, 100)",,,,,,,,,,,,,,,,,0,2,2,15,,,,,,,,,,,,,,,,,,,,,,,,,,,,,,,,,212.2427070409758,213.24221499997657,213.32579137501307,None,None,213.32579137501307,214.32584624999436,,,,,,,,3,001,2021_Dec_01_1438,myproject,2021.2.3,59.80096743574194,
3,neutral,geography,q',,"(100, 0, 0)",,,,,,,,,,,,,,,,,0,3,3,2,,,,,,,,,,,,,,,,,,,,,,,,,,,,,,,,,214.82544029096607,215.82561416598037,215.90912249998655,214.82544029096607,q,215.90912249998655,None,0.8962081660283729,,,,,,,3,001,2021_Dec_01_1438,myproject,2021.2.3,59.80096743574194,
10,neutral,editing,q',,"(0, 0, 100)",,,,,,,,,,,,,,,,,0,4,4,9,,,,,,,,,,,,,,,,,,,,,,,,,,,,,,,,,216.826189082989,217.82575116597582,217.90918037499068,None,q,217.90918037499068,None,0.8792349580326118,,,,,,,3,001,2021_Dec_01_1438,myproject,2021.2.3,59.80096743574194,
20,negative,fearful,n',,"(100, 0, 0)",,,,,,,,,,,,,,,,,0,5,5,19,,,,,,,,,,,,,,,,,,,,,,,,,,,,,,,,,218.80965229100548,219.80918012501206,219.89256283297436,None,n,219.89256283297436,None,0.9156913330079988,,,,,,,3,001,2021_Dec_01_1438,myproject,2021.2.3,59.80096743574194,
13,negative,stressed,n',,"(0, 0, 100)",,,,,,,,,,,,,,,,,0,6,6,12,,,,,,,,,,,,,,,,,,,,,,,,,,,,,,,,,220.82628979097353,221.82622474996606,221.9094119159854,None,n,221.9094119159854,None,0.8037317490088753,,,,,,,3,001,2021_Dec_01_1438,myproject,2021.2.3,59.80096743574194,
14,negative,guilty,n',,"(0, 100, 0)",,,,,,,,,,,,,,,,,0,7,7,13,,,,,,,,,,,,,,,,,,,,,,,,,,,,,,,,,222.74272599996766,223.74270229099784,223.82629150000867,None,n,223.82629150000867,None,0.7689811250311323,,,,,,,3,001,2021_Dec_01_1438,myproject,2021.2.3,59.80096743574194,
18,negative,victimised,n',,"(100, 0, 0)",,,,,,,,,,,,,,,,,0,8,8,17,,,,,,,,,,,,,,,,,,,,,,,,,,,,,,,,,224.62637741595972,225.62635295797372,225.70962275000056,None,n,225.70962275000056,None,0.8788564999704249,,,,,,,3,001,2021_Dec_01_1438,myproject,2021.2.3,59.80096743574194,
15,negative,hostile,n',,"(100, 0, 0)",,,,,,,,,,,,,,,,,0,9,9,14,,,,,,,,,,,,,,,,,,,,,,,,,,,,,,,,,226.61001441598637,227.61001483298605,227.69329841597937,None,n,227.69329841597937,None,0.9612242910079658,,,,,,,3,001,2021_Dec_01_1438,myproject,2021.2.3,59.80096743574194,
12,negative,annoyed,n',,"(100, 0, 0)",,,,,,,,,,,,,,,,,0,10,10,11,,,,,,,,,,,,,,,,,,,,,,,,,,,,,,,,,228.67640662495978,229.67653720796807,229.7594597080024,None,n,229.7594597080024,None,0.8110047500231303,,,,,,,3,001,2021_Dec_01_1438,myproject,2021.2.3,59.80096743574194,
2,neutral,syllabus,q',,"(0, 100, 0)",,,,,,,,,,,,,,,,,0,11,11,1,,,,,,,,,,,,,,,,,,,,,,,,,,,,,,,,,230.59277891600505,231.59311437496217,231.67629383300664,None,q,231.67629383300664,None,0.7973200830165297,,,,,,,3,001,2021_Dec_01_1438,myproject,2021.2.3,59.80096743574194,
6,neutral,style,q',,"(100, 0, 0)",,,,,,,,,,,,,,,,,0,12,12,5,,,,,,,,,,,,,,,,,,,,,,,,,,,,,,,,,232.49329595797462,233.49287216598168,233.57639254099922,None,q,233.57639254099922,None,0.7812041670549661,,,,,,,3,001,2021_Dec_01_1438,myproject,2021.2.3,59.80096743574194,
11,negative,critical,n',,"(0, 100, 0)",,,,,,,,,,,,,,,,,0,13,13,10,,,,,,,,,,,,,,,,,,,,,,,,,,,,,,,,,234.3768839999684,235.3762820409611,235.46052066597622,None,None,235.46052066597622,236.4599092080025,,,,,,,,3,001,2021_Dec_01_1438,myproject,2021.2.3,59.80096743574194,
19,negative,tired,n',,"(100, 0, 0)",,,,,,,,,,,,,,,,,0,14,14,18,,,,,,,,,,,,,,,,,,,,,,,,,,,,,,,,,236.9597128329915,237.9597270829836,238.04302654101048,236.9597128329915,None,238.04302654101048,239.04328958300175,,,,,,,,3,001,2021_Dec_01_1438,myproject,2021.2.3,59.80096743574194,
9,neutral,photo,q',,"(100, 0, 0)",,,,,,,,,,,,,,,,,0,15,15,8,,,,,,,,,,,,,,,,,,,,,,,,,,,,,,,,,239.5428921249695,240.54308329097694,240.6263536660117,239.5428921249695,q,240.6263536660117,None,0.8112777080386877,,,,,,,3,001,2021_Dec_01_1438,myproject,2021.2.3,59.80096743574194,
4,neutral,vegetable,q',,"(0, 0, 100)",,,,,,,,,,,,,,,,,0,16,16,3,,,,,,,,,,,,,,,,,,,,,,,,,,,,,,,,,241.46016345795942,242.45982633298263,242.54338020796422,None,q,242.54338020796422,None,0.9191490830271505,,,,,,,3,001,2021_Dec_01_1438,myproject,2021.2.3,59.80096743574194,
5,neutral,glasses,q',,"(0, 100, 0)",,,,,,,,,,,,,,,,,0,17,17,4,,,,,,,,,,,,,,,,,,,,,,,,,,,,,,,,,243.49340616597328,244.49387162498897,244.57658216595883,None,None,244.57658216595883,245.5764344999916,,,,,,,,3,001,2021_Dec_01_1438,myproject,2021.2.3,59.80096743574194,
8,neutral,seventeen,q',,"(0, 100, 0)",,,,,,,,,,,,,,,,,0,18,18,7,,,,,,,,,,,,,,,,,,,,,,,,,,,,,,,,,246.0768850829918,247.07735391601454,247.16018404101487,246.0768850829918,q,247.16018404101487,None,0.7286015000427142,,,,,,,3,001,2021_Dec_01_1438,myproject,2021.2.3,59.80096743574194,
1,neutral,design,q',,"(0, 0, 100)",,,,,,,,,,,,,,,,,0,19,19,0,,,,,,,,,,,,,,,,,,,,,,,,,,,,,,,,,247.91043858299963,248.9102041249862,248.99334320798516,None,q,248.99334320798516,None,0.6992491250275634,,,,,,,3,001,2021_Dec_01_1438,myproject,2021.2.3,59.80096743574194,
,,,,,,,,,,,,,,,,,,,,,,,,,,,,,,,,,,,,,,,,,,,,,,,,,,,,,,,,,,,,,,,,,,249.7105254579801,None,space,2.2848236660356633,249.7105254579801,None,3,001,2021_Dec_01_1438,myproject,2021.2.3,59.80096743574194,
