Trial,condition,word,response,color,color_of_words,practice01.thisRepN,practice01.thisTrialN,practice01.thisN,practice01.thisIndex,trial_pos.thisRepN,trial_pos.thisTrialN,trial_pos.thisN,trial_pos.thisIndex,trials_neg.thisRepN,trials_neg.thisTrialN,trials_neg.thisN,trials_neg.thisIndex,trial_col_pos.thisRepN,trial_col_pos.thisTrialN,trial_col_pos.thisN,trial_col_pos.thisIndex,trial_col_neg.thisRepN,trial_col_neg.thisTrialN,trial_col_neg.thisN,trial_col_neg.thisIndex,text.started,text.stopped,key_resp.keys,key_resp.rt,key_resp.started,key_resp.stopped,text_4.started,text_4.stopped,key_resp_5.keys,key_resp_5.rt,key_resp_5.started,key_resp_5.stopped,fixtation.started,fixtation.stopped,words.started,words.stopped,key_response.keys,key_response.started,key_response.stopped,key_response.rt,text_2.started,text_2.stopped,key_resp_4.keys,key_resp_4.rt,key_resp_4.started,key_resp_4.stopped,text_5.started,text_5.stopped,key_resp_6.keys,key_resp_6.rt,key_resp_6.started,key_resp_6.stopped,fix_2.started,fix_2.stopped,word_2.started,word_2.stopped,key_resp_2.keys,key_resp_2.started,key_resp_2.stopped,key_resp_2.rt,text_3.started,text_3.stopped,key_resp_3.keys,key_resp_3.rt,key_resp_3.started,key_resp_3.stopped,participant,session,date,expName,psychopyVersion,frameRate,
,,,,,,,,,,,,,,,,,,,,,,,,,,12.495960167027079,None,space,23.046048582997173,12.495960167027079,None,,,,,,,,,,,,,,,,,,,,,,,,,,,,,,,,,,,,,,,,,5,001,2021_Dec_01_1449,myproject,2021.2.3,59.93506035603695,
,,,,,,,,,,,,,,,,,,,,,,,,,,,,,,,,35.572562958986964,None,space,2.344194124045316,35.572562958986964,None,,,,,,,,,,,,,,,,,,,,,,,,,,,,,,,,,,,5,001,2021_Dec_01_1449,myproject,2021.2.3,59.93506035603695,
5,neutral,participating,q',"(0, 100, 0)",,0,0,0,4,,,,,,,,,,,,,,,,,,,,,,,,,,,,,37.98061679198872,38.99020920897601,39.05688599997666,None,None,39.05688599997666,40.05694425001275,,,,,,,,,,,,,,,,,,,,,,,,,,,,5,001,2021_Dec_01_1449,myproject,2021.2.3,59.93506035603695,
3,positive,trusting,p',"(0, 100, 0)",,0,1,1,2,,,,,,,,,,,,,,,,,,,,,,,,,,,,,40.55643825000152,41.55723820900312,41.640002667030785,None,None,41.640002667030785,42.640212500002235,,,,,,,,,,,,,,,,,,,,,,,,,,,,5,001,2021_Dec_01_1449,myproject,2021.2.3,59.93506035603695,
9,negative,sad,n',"(0, 100, 0)",,0,2,2,8,,,,,,,,,,,,,,,,,,,,,,,,,,,,,43.13993170898175,44.14056587498635,44.22344383399468,43.13993170898175,n,44.22344383399468,None,0.7602648329921067,,,,,,,,,,,,,,,,,,,,,,,,,,,5,001,2021_Dec_01_1449,myproject,2021.2.3,59.93506035603695,
6,neutral,movement,q',"(0, 100, 0)",,0,3,3,5,,,,,,,,,,,,,,,,,,,,,,,,,,,,,45.006294708990026,46.006758917006664,46.089684000005946,None,None,46.089684000005946,47.09032929199748,,,,,,,,,,,,,,,,,,,,,,,,,,,,5,001,2021_Dec_01_1449,myproject,2021.2.3,59.93506035603695,
7,negative,busy,n',"(0, 100, 0)",,0,4,4,6,,,,,,,,,,,,,,,,,,,,,,,,,,,,,47.59083812497556,48.58969308400992,48.67386954202084,47.59083812497556,None,48.67386954202084,49.67356387502514,,,,,,,,,,,,,,,,,,,,,,,,,,,,5,001,2021_Dec_01_1449,myproject,2021.2.3,59.93506035603695,
10,negative,sceptical,n',"(0, 100, 0)",,0,5,5,9,,,,,,,,,,,,,,,,,,,,,,,,,,,,,50.17311754199909,51.17303250002442,51.256841583992355,50.17311754199909,None,51.256841583992355,52.25757379201241,,,,,,,,,,,,,,,,,,,,,,,,,,,,5,001,2021_Dec_01_1449,myproject,2021.2.3,59.93506035603695,
8,negative,ashamed,n',"(0, 100, 0)",,0,6,6,7,,,,,,,,,,,,,,,,,,,,,,,,,,,,,52.75714787503239,53.756703833991196,53.84015395899769,52.75714787503239,None,53.84015395899769,54.84027729200898,,,,,,,,,,,,,,,,,,,,,,,,,,,,5,001,2021_Dec_01_1449,myproject,2021.2.3,59.93506035603695,
1,positive,energetic,p',"(0, 100, 0)",,0,7,7,0,,,,,,,,,,,,,,,,,,,,,,,,,,,,,55.34123391698813,56.34077058400726,56.423806709004566,55.34123391698813,p,56.423806709004566,None,0.8589539580279961,,,,,,,,,,,,,,,,,,,,,,,,,,,5,001,2021_Dec_01_1449,myproject,2021.2.3,59.93506035603695,
2,positive,curious,p',"(0, 100, 0)",,0,8,8,1,,,,,,,,,,,,,,,,,,,,,,,,,,,,,57.307474291999824,58.3074925839901,58.390622584032826,None,None,58.390622584032826,59.390982209006324,,,,,,,,,,,,,,,,,,,,,,,,,,,,5,001,2021_Dec_01_1449,myproject,2021.2.3,59.93506035603695,
None,None,None,None,None,,0,9,9,10,,,,,,,,,,,,,,,,,,,,,,,,,,,,,59.89028433401836,60.89052737498423,60.974100375024136,59.89028433401836,None,60.974100375024136,61.97414683399256,,,,,,,,,,,,,,,,,,,,,,,,,,,,5,001,2021_Dec_01_1449,myproject,2021.2.3,59.93506035603695,
4,neutral,blender,q',"(0, 100, 0)",,0,10,10,3,,,,,,,,,,,,,,,,,,,,,,,,,,,,,62.47369129199069,63.47399116697488,63.55778008402558,62.47369129199069,None,63.55778008402558,64.55750637501478,,,,,,,,,,,,,,,,,,,,,,,,,,,,5,001,2021_Dec_01_1449,myproject,2021.2.3,59.93506035603695,
,,,,,,,,,,,,,,,,,,,,,,,,,,,,,,,,,,,,,,,,,,,,,,65.05724925000686,None,space,1.6014127079979517,65.05724925000686,None,,,,,,,,,,,,,,,,,,,,,5,001,2021_Dec_01_1449,myproject,2021.2.3,59.93506035603695,
2,positive,optimistic,p',"(0, 100, 0)",,,,,,0,0,0,1,,,,,,,,,,,,,,,,,,,,,,,,,66.70323591702618,67.70745487499516,67.79074804199627,None,p,67.79074804199627,None,0.7069923320086673,,,,,,,,,,,,,,,,,,,,,,,,,,,5,001,2021_Dec_01_1449,myproject,2021.2.3,59.93506035603695,
4,positive,content,p',"(0, 100, 0)",,,,,,0,1,1,3,,,,,,,,,,,,,,,,,,,,,,,,,68.52418033400318,69.52440958400257,69.60746816702886,None,None,69.60746816702886,70.60714233398903,,,,,,,,,,,,,,,,,,,,,,,,,,,,5,001,2021_Dec_01_1449,myproject,2021.2.3,59.93506035603695,
13,neutral,wrapping,q',"(0, 100, 0)",,,,,,0,2,2,12,,,,,,,,,,,,,,,,,,,,,,,,,71.10752437502379,72.1071476250072,72.19065624999348,71.10752437502379,n,72.19065624999348,None,0.8402098740334623,,,,,,,,,,,,,,,,,,,,,,,,,,,5,001,2021_Dec_01_1449,myproject,2021.2.3,59.93506035603695,
8,positive,joyful,p',"(0, 100, 0)",,,,,,0,3,3,7,,,,,,,,,,,,,,,,,,,,,,,,,73.05784020898864,74.0582299589878,74.14109749998897,None,p,74.14109749998897,None,0.5897005409933627,,,,,,,,,,,,,,,,,,,,,,,,,,,5,001,2021_Dec_01_1449,myproject,2021.2.3,59.93506035603695,
10,positive,successful,p',"(0, 100, 0)",,,,,,0,4,4,9,,,,,,,,,,,,,,,,,,,,,,,,,74.75748420902528,75.75713820901001,75.84138195897685,None,p,75.84138195897685,None,0.8016683739842847,,,,,,,,,,,,,,,,,,,,,,,,,,,5,001,2021_Dec_01_1449,myproject,2021.2.3,59.93506035603695,
12,neutral,imaging,q',"(0, 100, 0)",,,,,,0,5,5,11,,,,,,,,,,,,,,,,,,,,,,,,,76.67434570897603,77.67389912501676,77.75785566697596,None,q,77.75785566697596,None,0.7801363739999942,,,,,,,,,,,,,,,,,,,,,,,,,,,5,001,2021_Dec_01_1449,myproject,2021.2.3,59.93506035603695,
6,positive,intimate,p',"(0, 100, 0)",,,,,,0,6,6,5,,,,,,,,,,,,,,,,,,,,,,,,,78.55857766699046,79.57430616702186,79.64103737502592,None,None,79.64103737502592,80.64091883401852,,,,,,,,,,,,,,,,,,,,,,,,,,,,5,001,2021_Dec_01_1449,myproject,2021.2.3,59.93506035603695,
3,positive,interested,p',"(0, 100, 0)",,,,,,0,7,7,2,,,,,,,,,,,,,,,,,,,,,,,,,81.14124933403218,82.14109716698295,82.22456800000509,81.14124933403218,p,82.22456800000509,None,0.6964640409569256,,,,,,,,,,,,,,,,,,,,,,,,,,,5,001,2021_Dec_01_1449,myproject,2021.2.3,59.93506035603695,
9,positive,thankful,p',"(0, 100, 0)",,,,,,0,8,8,8,,,,,,,,,,,,,,,,,,,,,,,,,82.94118283397984,83.94099937501596,84.02444800001103,None,p,84.02444800001103,None,0.48443220800254494,,,,,,,,,,,,,,,,,,,,,,,,,,,5,001,2021_Dec_01_1449,myproject,2021.2.3,59.93506035603695,
16,neutral,condition,q',"(0, 100, 0)",,,,,,0,9,9,15,,,,,,,,,,,,,,,,,,,,,,,,,84.54098049999448,85.54081333399517,85.62492775003193,None,n,85.62492775003193,None,0.8023014580248855,,,,,,,,,,,,,,,,,,,,,,,,,,,5,001,2021_Dec_01_1449,myproject,2021.2.3,59.93506035603695,
1,positive,powerful,p',"(0, 100, 0)",,,,,,0,10,10,0,,,,,,,,,,,,,,,,,,,,,,,,,86.45799312501913,87.45788508397527,87.54138433397748,None,p,87.54138433397748,None,0.8014715000172146,,,,,,,,,,,,,,,,,,,,,,,,,,,5,001,2021_Dec_01_1449,myproject,2021.2.3,59.93506035603695,
20,neutral,designating,q',"(0, 100, 0)",,,,,,0,11,11,19,,,,,,,,,,,,,,,,,,,,,,,,,88.37485054199351,89.37471233401448,89.45798970898613,None,q,89.45798970898613,None,0.9368891239864752,,,,,,,,,,,,,,,,,,,,,,,,,,,5,001,2021_Dec_01_1449,myproject,2021.2.3,59.93506035603695,
7,positive,loving,p',"(0, 100, 0)",,,,,,0,12,12,6,,,,,,,,,,,,,,,,,,,,,,,,,90.42445962497732,91.4246382919955,91.50814770901343,None,p,91.50814770901343,None,0.638868415961042,,,,,,,,,,,,,,,,,,,,,,,,,,,5,001,2021_Dec_01_1449,myproject,2021.2.3,59.93506035603695,
5,positive,excited,p',"(0, 100, 0)",,,,,,0,13,13,4,,,,,,,,,,,,,,,,,,,,,,,,,92.1743621249916,93.17451787501341,93.25771149998764,None,p,93.25771149998764,None,0.774357707996387,,,,,,,,,,,,,,,,,,,,,,,,,,,5,001,2021_Dec_01_1449,myproject,2021.2.3,59.93506035603695,
14,neutral,sentense,q',"(0, 100, 0)",,,,,,0,14,14,13,,,,,,,,,,,,,,,,,,,,,,,,,94.05816670903005,95.05814962502336,95.14188254199689,None,None,95.14188254199689,96.1417548339814,,,,,,,,,,,,,,,,,,,,,,,,,,,,5,001,2021_Dec_01_1449,myproject,2021.2.3,59.93506035603695,
15,neutral,language,q',"(0, 100, 0)",,,,,,0,15,15,14,,,,,,,,,,,,,,,,,,,,,,,,,96.6419860420283,97.64150241698371,97.72565145901171,96.6419860420283,None,97.72565145901171,98.72544983401895,,,,,,,,,,,,,,,,,,,,,,,,,,,,5,001,2021_Dec_01_1449,myproject,2021.2.3,59.93506035603695,
17,neutral,numbers,q',"(0, 100, 0)",,,,,,0,16,16,16,,,,,,,,,,,,,,,,,,,,,,,,,99.2418832089752,100.24132404202828,100.32472008402692,99.2418832089752,q,100.32472008402692,None,0.6306246659951285,,,,,,,,,,,,,,,,,,,,,,,,,,,5,001,2021_Dec_01_1449,myproject,2021.2.3,59.93506035603695,
18,neutral,ceiling,q',"(0, 100, 0)",,,,,,0,17,17,17,,,,,,,,,,,,,,,,,,,,,,,,,100.97517879202496,101.97489158401731,102.05842620902695,None,p,102.05842620902695,None,0.6758924569585361,,,,,,,,,,,,,,,,,,,,,,,,,,,5,001,2021_Dec_01_1449,myproject,2021.2.3,59.93506035603695,
11,neutral,sweter,q',"(0, 100, 0)",,,,,,0,18,18,10,,,,,,,,,,,,,,,,,,,,,,,,,102.7582011250197,103.75830525002675,103.84209920902504,None,q,103.84209920902504,None,0.5022121659712866,,,,,,,,,,,,,,,,,,,,,,,,,,,5,001,2021_Dec_01_1449,myproject,2021.2.3,59.93506035603695,
19,neutral,moderate,q',"(0, 100, 0)",,,,,,0,19,19,18,,,,,,,,,,,,,,,,,,,,,,,,,104.374755249999,105.37489508400904,105.45835187501507,None,None,105.45835187501507,106.45820291701239,,,,,,,,,,,,,,,,,,,,,,,,,,,,5,001,2021_Dec_01_1449,myproject,2021.2.3,59.93506035603695,
12,negative,hurt,n',"(0, 100, 0)",,,,,,,,,,0,0,0,11,,,,,,,,,,,,,,,,,,,,,106.9714160420117,107.97569783398649,108.05846704199212,106.9714160420117,n,108.05846704199212,None,0.8817604160285555,,,,,,,,,,,,,,,,,,,,,,,,,,,5,001,2021_Dec_01_1449,myproject,2021.2.3,59.93506035603695,
9,neutral,formula,q',"(0, 100, 0)",,,,,,,,,,0,1,1,8,,,,,,,,,,,,,,,,,,,,,108.95874308398925,109.9584856670117,110.0418642500299,None,q,110.0418642500299,None,0.7964636239921674,,,,,,,,,,,,,,,,,,,,,,,,,,,5,001,2021_Dec_01_1449,myproject,2021.2.3,59.93506035603695,
7,neutral,running,q',"(0, 100, 0)",,,,,,,,,,0,2,2,6,,,,,,,,,,,,,,,,,,,,,110.85883024998475,111.85861233400647,111.9419063340174,None,None,111.9419063340174,112.94185391702922,,,,,,,,,,,,,,,,,,,,,,,,,,,,5,001,2021_Dec_01_1449,myproject,2021.2.3,59.93506035603695,
19,negative,helpless,n',"(0, 100, 0)",,,,,,,,,,0,3,3,18,,,,,,,,,,,,,,,,,,,,,113.44144395901822,114.44179062498733,114.52571512502618,113.44144395901822,None,114.52571512502618,115.52581554203061,,,,,,,,,,,,,,,,,,,,,,,,,,,,5,001,2021_Dec_01_1449,myproject,2021.2.3,59.93506035603695,
10,neutral,letter,q',"(0, 100, 0)",,,,,,,,,,0,4,4,9,,,,,,,,,,,,,,,,,,,,,116.02510000002803,117.02518829202745,117.10858479200397,116.02510000002803,None,117.10858479200397,118.10912366700359,,,,,,,,,,,,,,,,,,,,,,,,,,,,5,001,2021_Dec_01_1449,myproject,2021.2.3,59.93506035603695,
5,neutral,stone,q',"(0, 100, 0)",,,,,,,,,,0,5,5,4,,,,,,,,,,,,,,,,,,,,,118.60893250000663,119.60849941702327,119.69205983402207,118.60893250000663,p,119.69205983402207,None,0.8924557910067961,,,,,,,,,,,,,,,,,,,,,,,,,,,5,001,2021_Dec_01_1449,myproject,2021.2.3,59.93506035603695,
14,negative,anxious,n',"(0, 100, 0)",,,,,,,,,,0,6,6,13,,,,,,,,,,,,,,,,,,,,,120.60867391701322,121.60855183401145,121.69213654199848,None,n,121.69213654199848,None,0.8381670410162769,,,,,,,,,,,,,,,,,,,,,,,,,,,5,001,2021_Dec_01_1449,myproject,2021.2.3,59.93506035603695,
16,negative,vulnerable,n',"(0, 100, 0)",,,,,,,,,,0,7,7,15,,,,,,,,,,,,,,,,,,,,,122.55872087500757,123.55931024998426,123.64216679200763,None,None,123.64216679200763,124.64253341697622,,,,,,,,,,,,,,,,,,,,,,,,,,,,5,001,2021_Dec_01_1449,myproject,2021.2.3,59.93506035603695,
1,neutral,design,q',"(0, 100, 0)",,,,,,,,,,0,8,8,0,,,,,,,,,,,,,,,,,,,,,125.14245983399451,126.14255091699306,126.22563470900059,125.14245983399451,q,126.22563470900059,None,0.7110158739960752,,,,,,,,,,,,,,,,,,,,,,,,,,,5,001,2021_Dec_01_1449,myproject,2021.2.3,59.93506035603695,
17,negative,guilty,n',"(0, 100, 0)",,,,,,,,,,0,9,9,16,,,,,,,,,,,,,,,,,,,,,126.95885237498442,127.95903120900039,128.04201237502275,None,q,128.04201237502275,None,0.8883689159993082,,,,,,,,,,,,,,,,,,,,,,,,,,,5,001,2021_Dec_01_1449,myproject,2021.2.3,59.93506035603695,
11,negative,depressed,n',"(0, 100, 0)",,,,,,,,,,0,10,10,10,,,,,,,,,,,,,,,,,,,,,128.95920641702833,129.9596037089941,130.0423014590051,None,n,130.0423014590051,None,0.7801877909805626,,,,,,,,,,,,,,,,,,,,,,,,,,,5,001,2021_Dec_01_1449,myproject,2021.2.3,59.93506035603695,
3,neutral,geography,q',"(0, 100, 0)",,,,,,,,,,0,11,11,2,,,,,,,,,,,,,,,,,,,,,130.84263249998912,131.8422625840176,131.92665637499886,None,None,131.92665637499886,132.92635362502187,,,,,,,,,,,,,,,,,,,,,,,,,,,,5,001,2021_Dec_01_1449,myproject,2021.2.3,59.93506035603695,
21,negative,vulnerable,n',"(0, 100, 0)",,,,,,,,,,0,12,12,20,,,,,,,,,,,,,,,,,,,,,133.42638937500305,134.42619058402488,134.50943008402828,133.42638937500305,None,134.50943008402828,135.5092580000055,,,,,,,,,,,,,,,,,,,,,,,,,,,,5,001,2021_Dec_01_1449,myproject,2021.2.3,59.93506035603695,
6,neutral,joining,q',"(0, 100, 0)",,,,,,,,,,0,13,13,5,,,,,,,,,,,,,,,,,,,,,136.0091731250286,137.00948200002313,137.09251979202963,136.0091731250286,None,137.09251979202963,138.09286904201144,,,,,,,,,,,,,,,,,,,,,,,,,,,,5,001,2021_Dec_01_1449,myproject,2021.2.3,59.93506035603695,
18,negative,scared,n',"(0, 100, 0)",,,,,,,,,,0,14,14,17,,,,,,,,,,,,,,,,,,,,,138.59273216698784,139.5929039589828,139.67591900000116,138.59273216698784,n,139.67591900000116,None,0.8325229579932056,,,,,,,,,,,,,,,,,,,,,,,,,,,5,001,2021_Dec_01_1449,myproject,2021.2.3,59.93506035603695,
4,neutral,window,q',"(0, 100, 0)",,,,,,,,,,0,15,15,3,,,,,,,,,,,,,,,,,,,,,140.52658366702963,141.52603349997662,141.610162166995,None,None,141.610162166995,142.60996254201746,,,,,,,,,,,,,,,,,,,,,,,,,,,,5,001,2021_Dec_01_1449,myproject,2021.2.3,59.93506035603695,
8,neutral,monotone,q',"(0, 100, 0)",,,,,,,,,,0,16,16,7,,,,,,,,,,,,,,,,,,,,,143.10944116697647,144.10968691698508,144.1929929589969,143.10944116697647,q,144.1929929589969,None,0.7796904580318369,,,,,,,,,,,,,,,,,,,,,,,,,,,5,001,2021_Dec_01_1449,myproject,2021.2.3,59.93506035603695,
15,negative,bored,n',"(0, 100, 0)",,,,,,,,,,0,17,17,14,,,,,,,,,,,,,,,,,,,,,144.99295587500092,145.99246258399216,146.07621800003108,None,None,146.07621800003108,147.07652141700964,,,,,,,,,,,,,,,,,,,,,,,,,,,,5,001,2021_Dec_01_1449,myproject,2021.2.3,59.93506035603695,
20,negative,jealous,n',"(0, 100, 0)",,,,,,,,,,0,18,18,19,,,,,,,,,,,,,,,,,,,,,147.5766119590262,148.57611475000158,148.6596181250061,147.5766119590262,n,148.6596181250061,None,0.9112833749968559,,,,,,,,,,,,,,,,,,,,,,,,,,,5,001,2021_Dec_01_1449,myproject,2021.2.3,59.93506035603695,
13,negative,lonely,n',"(0, 100, 0)",,,,,,,,,,0,19,19,12,,,,,,,,,,,,,,,,,,,,,149.59276362502715,150.59327966702404,150.67653512500692,None,n,150.67653512500692,None,0.5962335410295054,,,,,,,,,,,,,,,,,,,,,,,,,,,5,001,2021_Dec_01_1449,myproject,2021.2.3,59.93506035603695,
2,neutral,syllabus,q',"(0, 100, 0)",,,,,,,,,,0,20,20,1,,,,,,,,,,,,,,,,,,,,,151.2933109169826,152.29297204199247,152.37609608401544,None,None,152.37609608401544,153.37670258397702,,,,,,,,,,,,,,,,,,,,,,,,,,,,5,001,2021_Dec_01_1449,myproject,2021.2.3,59.93506035603695,
,,,,,,,,,,,,,,,,,,,,,,,,,,,,,,,,,,,,,,,,,,,,,,,,,,,,153.87621195899555,None,space,2.590533333015628,153.87621195899555,None,,,,,,,,,,,,,,,5,001,2021_Dec_01_1449,myproject,2021.2.3,59.93506035603695,
1,positive,proud,p',,"(0, 0, 100)",,,,,,,,,,,,,0,0,0,0,,,,,,,,,,,,,,,,,,,,,,,,,,,,,,,,,,,,,156.50661345903063,157.51029204198858,157.5935947090038,None,None,157.5935947090038,158.59335054201074,,,,,,,,5,001,2021_Dec_01_1449,myproject,2021.2.3,59.93506035603695,
2,positive,glad,p',,"(0, 100, 0)",,,,,,,,,,,,,0,1,1,1,,,,,,,,,,,,,,,,,,,,,,,,,,,,,,,,,,,,,159.09326008398784,160.09341608401155,160.17703750001965,159.09326008398784,p,160.17703750001965,None,0.7506007910124026,,,,,,,5,001,2021_Dec_01_1449,myproject,2021.2.3,59.93506035603695,
3,positive,happy,p',,"(100, 0, 0)",,,,,,,,,,,,,0,2,2,2,,,,,,,,,,,,,,,,,,,,,,,,,,,,,,,,,,,,,160.96001362497918,161.9600187499891,162.0431411670288,None,p,162.0431411670288,None,0.7907117499853484,,,,,,,5,001,2021_Dec_01_1449,myproject,2021.2.3,59.93506035603695,
4,positive,playful,p',,"(0, 0, 100)",,,,,,,,,,,,,0,3,3,3,,,,,,,,,,,,,,,,,,,,,,,,,,,,,,,,,,,,,162.8598731670063,163.86027541698422,163.9439364169957,None,p,163.9439364169957,None,0.7818893330404535,,,,,,,5,001,2021_Dec_01_1449,myproject,2021.2.3,59.93506035603695,
5,positive,amazed,p',,"(0, 100, 0)",,,,,,,,,,,,,0,4,4,4,,,,,,,,,,,,,,,,,,,,,,,,,,,,,,,,,,,,,164.7444452919881,165.7599162919796,165.84344629198313,None,p,165.84344629198313,None,0.543469874013681,,,,,,,5,001,2021_Dec_01_1449,myproject,2021.2.3,59.93506035603695,
6,positive,valued,p',,"(100, 0, 0)",,,,,,,,,,,,,0,5,5,5,,,,,,,,,,,,,,,,,,,,,,,,,,,,,,,,,,,,,166.40969637501985,167.41038654203294,167.49359529197682,None,n,167.49359529197682,None,0.6913942079991102,,,,,,,5,001,2021_Dec_01_1449,myproject,2021.2.3,59.93506035603695,
7,positive,respected,p',,"(0, 0, 100)",,,,,,,,,,,,,0,6,6,6,,,,,,,,,,,,,,,,,,,,,,,,,,,,,,,,,,,,,168.21059362503001,169.20970108400797,169.29429154202808,None,p,169.29429154202808,None,0.4636587499990128,,,,,,,5,001,2021_Dec_01_1449,myproject,2021.2.3,59.93506035603695,
8,positive,free,p',,"(0, 100, 0)",,,,,,,,,,,,,0,7,7,7,,,,,,,,,,,,,,,,,,,,,,,,,,,,,,,,,,,,,169.77699070901144,170.77669641701505,170.86017850000644,None,p,170.86017850000644,None,0.6668544159620069,,,,,,,5,001,2021_Dec_01_1449,myproject,2021.2.3,59.93506035603695,
9,positive,joyful,p',,"(100, 0, 0)",,,,,,,,,,,,,0,8,8,8,,,,,,,,,,,,,,,,,,,,,,,,,,,,,,,,,,,,,171.54448441701243,172.56054858397692,172.6271021250286,None,p,172.6271021250286,None,0.43984620698029175,,,,,,,5,001,2021_Dec_01_1449,myproject,2021.2.3,59.93506035603695,
10,positive,calm,p',,"(0, 0, 100)",,,,,,,,,,,,,0,9,9,9,,,,,,,,,,,,,,,,,,,,,,,,,,,,,,,,,,,,,173.09340470901225,174.09388654201757,174.1773740000208,None,p,174.1773740000208,None,0.4475982080330141,,,,,,,5,001,2021_Dec_01_1449,myproject,2021.2.3,59.93506035603695,
11,neutral,language,q',,"(0, 100, 0)",,,,,,,,,,,,,0,10,10,10,,,,,,,,,,,,,,,,,,,,,,,,,,,,,,,,,,,,,174.64383766701212,175.6438127500005,175.72719700000016,None,p,175.72719700000016,None,0.3836881660390645,,,,,,,5,001,2021_Dec_01_1449,myproject,2021.2.3,59.93506035603695,
12,neutral,condition,q',,"(100, 0, 0)",,,,,,,,,,,,,0,11,11,11,,,,,,,,,,,,,,,,,,,,,,,,,,,,,,,,,,,,,176.14381783403223,177.14391004201025,177.22715350001818,None,n,177.22715350001818,None,0.6588121660170145,,,,,,,5,001,2021_Dec_01_1449,myproject,2021.2.3,59.93506035603695,
13,neutral,numbers,q',,"(0, 0, 100)",,,,,,,,,,,,,0,12,12,12,,,,,,,,,,,,,,,,,,,,,,,,,,,,,,,,,,,,,177.91022750001866,178.91043029201683,178.99436587502714,None,q,178.99436587502714,None,0.6175100829568692,,,,,,,5,001,2021_Dec_01_1449,myproject,2021.2.3,59.93506035603695,
14,neutral,ceiling,q',,"(0, 100, 0)",,,,,,,,,,,,,0,13,13,13,,,,,,,,,,,,,,,,,,,,,,,,,,,,,,,,,,,,,179.64397804200416,180.64382012502756,180.72748133400455,None,q,180.72748133400455,None,0.5884945410070941,,,,,,,5,001,2021_Dec_01_1449,myproject,2021.2.3,59.93506035603695,
15,neutral,moderate,q',,"(100, 0, 0)",,,,,,,,,,,,,0,14,14,14,,,,,,,,,,,,,,,,,,,,,,,,,,,,,,,,,,,,,181.34455912502017,182.34407191700302,182.42784770898288,None,q,182.42784770898288,None,0.5711773330112919,,,,,,,5,001,2021_Dec_01_1449,myproject,2021.2.3,59.93506035603695,
16,neutral,designating,q',,"(0, 0, 100)",,,,,,,,,,,,,0,15,15,15,,,,,,,,,,,,,,,,,,,,,,,,,,,,,,,,,,,,,183.02758995897602,184.02753204200417,184.11079887498636,None,q,184.11079887498636,None,0.6211286660400219,,,,,,,5,001,2021_Dec_01_1449,myproject,2021.2.3,59.93506035603695,
17,neutral,participating,q',,"(0, 100, 0)",,,,,,,,,,,,,0,16,16,16,,,,,,,,,,,,,,,,,,,,,,,,,,,,,,,,,,,,,184.76042750000488,185.7610253340099,185.84369937499287,None,q,185.84369937499287,None,0.89353983203182,,,,,,,5,001,2021_Dec_01_1449,myproject,2021.2.3,59.93506035603695,
18,neutral,collecting,q',,"(100, 0, 0)",,,,,,,,,,,,,0,17,17,17,,,,,,,,,,,,,,,,,,,,,,,,,,,,,,,,,,,,,186.7608923750231,187.76038562500617,187.84407491702586,None,q,187.84407491702586,None,0.5440538739785552,,,,,,,5,001,2021_Dec_01_1449,myproject,2021.2.3,59.93506035603695,
19,neutral,telephone,q',,"(100, 0, 0)",,,,,,,,,,,,,0,18,18,18,,,,,,,,,,,,,,,,,,,,,,,,,,,,,,,,,,,,,188.41046683402965,189.41076233400963,189.49420183402253,None,q,189.49420183402253,None,0.5770395410363562,,,,,,,5,001,2021_Dec_01_1449,myproject,2021.2.3,59.93506035603695,
20,neutral,carbonate,q',,"(100, 0, 0)",,,,,,,,,,,,,0,19,19,19,,,,,,,,,,,,,,,,,,,,,,,,,,,,,,,,,,,,,190.09390045900363,191.09403958398616,191.17730233399197,None,q,191.17730233399197,None,0.5779922079527751,,,,,,,5,001,2021_Dec_01_1449,myproject,2021.2.3,59.93506035603695,
19,negative,tired,n',,"(100, 0, 0)",,,,,,,,,,,,,,,,,0,0,0,18,,,,,,,,,,,,,,,,,,,,,,,,,,,,,,,,,191.79430979199242,192.7940865419805,192.87734725000337,None,n,192.87734725000337,None,0.733709832013119,,,,,,,5,001,2021_Dec_01_1449,myproject,2021.2.3,59.93506035603695,
6,neutral,style,q',,"(100, 0, 0)",,,,,,,,,,,,,,,,,0,1,1,5,,,,,,,,,,,,,,,,,,,,,,,,,,,,,,,,,193.6443506249925,194.6442697920138,194.72791212500306,None,n,194.72791212500306,None,0.582219583040569,,,,,,,5,001,2021_Dec_01_1449,myproject,2021.2.3,59.93506035603695,
18,negative,victimised,n',,"(100, 0, 0)",,,,,,,,,,,,,,,,,0,2,2,17,,,,,,,,,,,,,,,,,,,,,,,,,,,,,,,,,195.32808312500129,196.3280874590273,196.4109262499842,None,n,196.4109262499842,None,0.6062235409626737,,,,,,,5,001,2021_Dec_01_1449,myproject,2021.2.3,59.93506035603695,
16,negative,embarrassed,n',,"(0, 0, 100)",,,,,,,,,,,,,,,,,0,3,3,15,,,,,,,,,,,,,,,,,,,,,,,,,,,,,,,,,197.04474666703027,198.04450495901983,198.12771525001153,None,n,198.12771525001153,None,0.67243962403154,,,,,,,5,001,2021_Dec_01_1449,myproject,2021.2.3,59.93506035603695,
9,neutral,photo,q',,"(100, 0, 0)",,,,,,,,,,,,,,,,,0,4,4,8,,,,,,,,,,,,,,,,,,,,,,,,,,,,,,,,,198.82788474997506,199.8277341669891,199.91085099999327,None,q,199.91085099999327,None,0.8322566659771837,,,,,,,5,001,2021_Dec_01_1449,myproject,2021.2.3,59.93506035603695,
13,negative,stressed,n',,"(0, 0, 100)",,,,,,,,,,,,,,,,,0,5,5,12,,,,,,,,,,,,,,,,,,,,,,,,,,,,,,,,,200.7613042090088,201.76112350000767,201.84456708398648,None,None,201.84456708398648,202.8446334170294,,,,,,,,5,001,2021_Dec_01_1449,myproject,2021.2.3,59.93506035603695,
4,neutral,vegetable,q',,"(0, 0, 100)",,,,,,,,,,,,,,,,,0,6,6,3,,,,,,,,,,,,,,,,,,,,,,,,,,,,,,,,,203.34509529202478,204.34501616697526,204.42829520901432,203.34509529202478,q,204.42829520901432,None,0.7049602069891989,,,,,,,5,001,2021_Dec_01_1449,myproject,2021.2.3,59.93506035603695,
11,negative,critical,n',,"(0, 100, 0)",,,,,,,,,,,,,,,,,0,7,7,10,,,,,,,,,,,,,,,,,,,,,,,,,,,,,,,,,205.16094745899318,206.16122004197678,206.2442194169853,None,n,206.2442194169853,None,0.6131855410058051,,,,,,,5,001,2021_Dec_01_1449,myproject,2021.2.3,59.93506035603695,
12,negative,annoyed,n',,"(100, 0, 0)",,,,,,,,,,,,,,,,,0,8,8,11,,,,,,,,,,,,,,,,,,,,,,,,,,,,,,,,,206.87788808398182,207.87852004199522,207.96119200001704,None,n,207.96119200001704,None,0.5242695410270244,,,,,,,5,001,2021_Dec_01_1449,myproject,2021.2.3,59.93506035603695,
14,negative,guilty,n',,"(0, 100, 0)",,,,,,,,,,,,,,,,,0,9,9,13,,,,,,,,,,,,,,,,,,,,,,,,,,,,,,,,,208.51142595900455,209.51131945900852,209.59490795899183,None,n,209.59490795899183,None,0.48424474900821224,,,,,,,5,001,2021_Dec_01_1449,myproject,2021.2.3,59.93506035603695,
10,neutral,editing,q',,"(0, 0, 100)",,,,,,,,,,,,,,,,,0,10,10,9,,,,,,,,,,,,,,,,,,,,,,,,,,,,,,,,,210.1120320840273,211.11132529197494,211.19512795901392,None,q,211.19512795901392,None,0.7253592499764636,,,,,,,5,001,2021_Dec_01_1449,myproject,2021.2.3,59.93506035603695,
15,negative,hostile,n',,"(100, 0, 0)",,,,,,,,,,,,,,,,,0,11,11,14,,,,,,,,,,,,,,,,,,,,,,,,,,,,,,,,,211.94459312502295,212.94487191701774,213.02869837498292,None,q,213.02869837498292,None,0.804612374980934,,,,,,,5,001,2021_Dec_01_1449,myproject,2021.2.3,59.93506035603695,
7,neutral,mapping,q',,"(0, 0, 100)",,,,,,,,,,,,,,,,,0,12,12,6,,,,,,,,,,,,,,,,,,,,,,,,,,,,,,,,,213.86107916699257,214.861623417004,214.9449008340016,None,q,214.9449008340016,None,0.778593750030268,,,,,,,5,001,2021_Dec_01_1449,myproject,2021.2.3,59.93506035603695,
3,neutral,geography,q',,"(100, 0, 0)",,,,,,,,,,,,,,,,,0,13,13,2,,,,,,,,,,,,,,,,,,,,,,,,,,,,,,,,,215.74531416699756,216.7450579170254,216.82818704203237,None,q,216.82818704203237,None,0.6294773740228266,,,,,,,5,001,2021_Dec_01_1449,myproject,2021.2.3,59.93506035603695,
17,negative,grief,n',,"(0, 100, 0)",,,,,,,,,,,,,,,,,0,14,14,16,,,,,,,,,,,,,,,,,,,,,,,,,,,,,,,,,217.4782188750105,218.4781231249799,218.56189458398148,None,n,218.56189458398148,None,0.5795906660496257,,,,,,,5,001,2021_Dec_01_1449,myproject,2021.2.3,59.93506035603695,
5,neutral,glasses,q',,"(0, 100, 0)",,,,,,,,,,,,,,,,,0,15,15,4,,,,,,,,,,,,,,,,,,,,,,,,,,,,,,,,,219.1618568749982,220.161452291999,220.24491150001995,None,q,220.24491150001995,None,0.7213990410091355,,,,,,,5,001,2021_Dec_01_1449,myproject,2021.2.3,59.93506035603695,
20,negative,fearful,n',,"(100, 0, 0)",,,,,,,,,,,,,,,,,0,16,16,19,,,,,,,,,,,,,,,,,,,,,,,,,,,,,,,,,220.9945913340198,221.9951099170139,222.07823941699462,None,None,222.07823941699462,223.07829579198733,,,,,,,,5,001,2021_Dec_01_1449,myproject,2021.2.3,59.93506035603695,
1,neutral,design,q',,"(0, 0, 100)",,,,,,,,,,,,,,,,,0,17,17,0,,,,,,,,,,,,,,,,,,,,,,,,,,,,,,,,,223.5788267920143,224.5786909169983,224.66166533401702,223.5788267920143,q,224.66166533401702,None,0.551662166020833,,,,,,,5,001,2021_Dec_01_1449,myproject,2021.2.3,59.93506035603695,
2,neutral,syllabus,q',,"(0, 100, 0)",,,,,,,,,,,,,,,,,0,18,18,1,,,,,,,,,,,,,,,,,,,,,,,,,,,,,,,,,225.24502387503162,226.2452047090046,226.32848366699181,None,None,226.32848366699181,227.32846995902946,,,,,,,,5,001,2021_Dec_01_1449,myproject,2021.2.3,59.93506035603695,
8,neutral,seventeen,q',,"(0, 100, 0)",,,,,,,,,,,,,,,,,0,19,19,7,,,,,,,,,,,,,,,,,,,,,,,,,,,,,,,,,227.82846783398418,228.82912141701672,228.91217933403095,227.82846783398418,None,228.91217933403095,229.91186354198726,,,,,,,,5,001,2021_Dec_01_1449,myproject,2021.2.3,59.93506035603695,
,,,,,,,,,,,,,,,,,,,,,,,,,,,,,,,,,,,,,,,,,,,,,,,,,,,,,,,,,,,,,,,,,,230.41245975001948,None,space,6.657084957987536,230.41245975001948,None,5,001,2021_Dec_01_1449,myproject,2021.2.3,59.93506035603695,
