Trial,condition,word,response,color,color_of_words,practice01.thisRepN,practice01.thisTrialN,practice01.thisN,practice01.thisIndex,trial_pos.thisRepN,trial_pos.thisTrialN,trial_pos.thisN,trial_pos.thisIndex,trials_neg.thisRepN,trials_neg.thisTrialN,trials_neg.thisN,trials_neg.thisIndex,trial_col_pos.thisRepN,trial_col_pos.thisTrialN,trial_col_pos.thisN,trial_col_pos.thisIndex,trial_col_neg.thisRepN,trial_col_neg.thisTrialN,trial_col_neg.thisN,trial_col_neg.thisIndex,text.started,text.stopped,key_resp.keys,key_resp.rt,key_resp.started,key_resp.stopped,text_4.started,text_4.stopped,key_resp_5.keys,key_resp_5.rt,key_resp_5.started,key_resp_5.stopped,fixtation.started,fixtation.stopped,words.started,words.stopped,key_response.keys,key_response.started,key_response.stopped,key_response.rt,text_2.started,text_2.stopped,key_resp_4.keys,key_resp_4.rt,key_resp_4.started,key_resp_4.stopped,text_5.started,text_5.stopped,key_resp_6.keys,key_resp_6.rt,key_resp_6.started,key_resp_6.stopped,fix_2.started,fix_2.stopped,word_2.started,word_2.stopped,key_resp_2.keys,key_resp_2.rt,key_resp_2.started,key_resp_2.stopped,text_3.started,text_3.stopped,key_resp_3.keys,key_resp_3.rt,key_resp_3.started,key_resp_3.stopped,participant,session,date,expName,psychopyVersion,frameRate,
,,,,,,,,,,,,,,,,,,,,,,,,,,18.304250334040262,None,space,37.125211416045204,18.304250334040262,None,,,,,,,,,,,,,,,,,,,,,,,,,,,,,,,,,,,,,,,,,7,001,2021_Dec_10_2131,myproject,2021.2.3,59.86185405408151,
,,,,,,,,,,,,,,,,,,,,,,,,,,,,,,,,55.455328208976425,None,space,2.4302362910239026,55.455328208976425,None,,,,,,,,,,,,,,,,,,,,,,,,,,,,,,,,,,,7,001,2021_Dec_10_2131,myproject,2021.2.3,59.86185405408151,
8,negative,ashamed,n',"(0, 100, 0)",,0,0,0,7,,,,,,,,,,,,,,,,,,,,,,,,,,,,,57.955965667031705,58.96386695897672,59.03075729205739,None,None,59.03075729205739,60.03065112500917,,,,,,,,,,,,,,,,,,,,,,,,,,,,7,001,2021_Dec_10_2131,myproject,2021.2.3,59.86185405408151,
5,neutral,participating,q',"(0, 100, 0)",,0,1,1,4,,,,,,,,,,,,,,,,,,,,,,,,,,,,,60.53035529202316,61.53124000004027,61.61393016704824,None,None,61.61393016704824,62.614241459057666,,,,,,,,,,,,,,,,,,,,,,,,,,,,7,001,2021_Dec_10_2131,myproject,2021.2.3,59.86185405408151,
1,positive,energetic,p',"(0, 100, 0)",,0,2,2,0,,,,,,,,,,,,,,,,,,,,,,,,,,,,,63.1138662090525,64.11389300005976,64.19730258407071,63.1138662090525,None,64.19730258407071,65.19715258397628,,,,,,,,,,,,,,,,,,,,,,,,,,,,7,001,2021_Dec_10_2131,myproject,2021.2.3,59.86185405408151,
None,None,None,None,None,,0,3,3,10,,,,,,,,,,,,,,,,,,,,,,,,,,,,,65.69748870900366,66.69744004204404,66.78082379198167,65.69748870900366,None,66.78082379198167,67.78073320898693,,,,,,,,,,,,,,,,,,,,,,,,,,,,7,001,2021_Dec_10_2131,myproject,2021.2.3,59.86185405408151,
10,negative,sceptical,n',"(0, 100, 0)",,0,4,4,9,,,,,,,,,,,,,,,,,,,,,,,,,,,,,68.28037245897576,69.28089162497781,69.36460662505124,68.28037245897576,None,69.36460662505124,70.3645537920529,,,,,,,,,,,,,,,,,,,,,,,,,,,,7,001,2021_Dec_10_2131,myproject,2021.2.3,59.86185405408151,
4,neutral,blender,q',"(0, 100, 0)",,0,5,5,3,,,,,,,,,,,,,,,,,,,,,,,,,,,,,70.86478708405048,71.86393925000448,71.94755183404777,70.86478708405048,None,71.94755183404777,72.94747491704766,,,,,,,,,,,,,,,,,,,,,,,,,,,,7,001,2021_Dec_10_2131,myproject,2021.2.3,59.86185405408151,
6,neutral,movement,q',"(0, 100, 0)",,0,6,6,5,,,,,,,,,,,,,,,,,,,,,,,,,,,,,73.44744758401066,74.4477323750034,74.5309846670134,73.44744758401066,None,74.5309846670134,75.531082584057,,,,,,,,,,,,,,,,,,,,,,,,,,,,7,001,2021_Dec_10_2131,myproject,2021.2.3,59.86185405408151,
3,positive,trusting,p',"(0, 100, 0)",,0,7,7,2,,,,,,,,,,,,,,,,,,,,,,,,,,,,,76.03075187501963,77.03158987499774,77.11470887507312,76.03075187501963,p,77.11470887507312,None,0.8151615830138326,,,,,,,,,,,,,,,,,,,,,,,,,,,7,001,2021_Dec_10_2131,myproject,2021.2.3,59.86185405408151,
2,positive,curious,p',"(0, 100, 0)",,0,8,8,1,,,,,,,,,,,,,,,,,,,,,,,,,,,,,77.94837100000586,78.94764195906464,79.03125120908953,None,None,79.03125120908953,80.03143591701519,,,,,,,,,,,,,,,,,,,,,,,,,,,,7,001,2021_Dec_10_2131,myproject,2021.2.3,59.86185405408151,
9,negative,sad,n',"(0, 100, 0)",,0,9,9,8,,,,,,,,,,,,,,,,,,,,,,,,,,,,,80.53124845901038,81.53162262507249,81.61514500004705,80.53124845901038,n,81.61514500004705,None,0.9047012910014018,,,,,,,,,,,,,,,,,,,,,,,,,,,7,001,2021_Dec_10_2131,myproject,2021.2.3,59.86185405408151,
7,negative,busy,n',"(0, 100, 0)",,0,10,10,6,,,,,,,,,,,,,,,,,,,,,,,,,,,,,82.54833266697824,83.54807975003496,83.631237792084,None,n,83.631237792084,None,0.7647307910956442,,,,,,,,,,,,,,,,,,,,,,,,,,,7,001,2021_Dec_10_2131,myproject,2021.2.3,59.86185405408151,
,,,,,,,,,,,,,,,,,,,,,,,,,,,,,,,,,,,,,,,,,,,,,,84.41558020899538,None,space,7.614361374056898,84.41558020899538,None,,,,,,,,,,,,,,,,,,,,,7,001,2021_Dec_10_2131,myproject,2021.2.3,59.86185405408151,
13,neutral,wrapping,q',"(0, 100, 0)",,,,,,0,0,0,12,,,,,,,,,,,,,,,,,,,,,,,,,92.07134887506254,93.08199475007132,93.16471266699955,None,None,93.16471266699955,94.16506487503648,,,,,,,,,,,,,,,,,,,,,,,,,,,,7,001,2021_Dec_10_2131,myproject,2021.2.3,59.86185405408151,
6,positive,intimate,p',"(0, 100, 0)",,,,,,0,1,1,5,,,,,,,,,,,,,,,,,,,,,,,,,94.66467475006357,95.66471325000748,95.74844950006809,None,None,95.74844950006809,96.74831787508447,,,,,,,,,,,,,,,,,,,,,,,,,,,,7,001,2021_Dec_10_2131,myproject,2021.2.3,59.86185405408151,
12,neutral,imaging,q',"(0, 100, 0)",,,,,,0,2,2,11,,,,,,,,,,,,,,,,,,,,,,,,,97.24811875005253,98.248735625064,98.33196212502662,97.24811875005253,None,98.33196212502662,99.33149908401538,,,,,,,,,,,,,,,,,,,,,,,,,,,,7,001,2021_Dec_10_2131,myproject,2021.2.3,59.86185405408151,
18,neutral,ceiling,q',"(0, 100, 0)",,,,,,0,3,3,17,,,,,,,,,,,,,,,,,,,,,,,,,99.83184641704429,100.83172400004696,100.91533779201563,99.83184641704429,None,100.91533779201563,101.91495445906185,,,,,,,,,,,,,,,,,,,,,,,,,,,,7,001,2021_Dec_10_2131,myproject,2021.2.3,59.86185405408151,
14,neutral,sentense,q',"(0, 100, 0)",,,,,,0,4,4,13,,,,,,,,,,,,,,,,,,,,,,,,,102.41490320907906,103.41517045907676,103.49881245905999,102.41490320907906,None,103.49881245905999,104.49857629206963,,,,,,,,,,,,,,,,,,,,,,,,,,,,7,001,2021_Dec_10_2131,myproject,2021.2.3,59.86185405408151,
20,neutral,designating,q',"(0, 100, 0)",,,,,,0,5,5,19,,,,,,,,,,,,,,,,,,,,,,,,,104.99890750006307,105.9993010420585,106.08219170907978,104.99890750006307,None,106.08219170907978,107.08238883398008,,,,,,,,,,,,,,,,,,,,,,,,,,,,7,001,2021_Dec_10_2131,myproject,2021.2.3,59.86185405408151,
9,positive,thankful,p',"(0, 100, 0)",,,,,,0,6,6,8,,,,,,,,,,,,,,,,,,,,,,,,,107.58222937502433,108.58180566702504,108.66560937499162,107.58222937502433,p,108.66560937499162,None,0.7598517070291564,,,,,,,,,,,,,,,,,,,,,,,,,,,7,001,2021_Dec_10_2131,myproject,2021.2.3,59.86185405408151,
10,positive,successful,p',"(0, 100, 0)",,,,,,0,7,7,9,,,,,,,,,,,,,,,,,,,,,,,,,109.44860579201486,110.44882983400021,110.53190533397719,None,p,110.53190533397719,None,0.6833571660099551,,,,,,,,,,,,,,,,,,,,,,,,,,,7,001,2021_Dec_10_2131,myproject,2021.2.3,59.86185405408151,
15,neutral,language,q',"(0, 100, 0)",,,,,,0,8,8,14,,,,,,,,,,,,,,,,,,,,,,,,,111.23243645904586,112.23264070902951,112.31584979197942,None,p,112.31584979197942,None,0.783390040975064,,,,,,,,,,,,,,,,,,,,,,,,,,,7,001,2021_Dec_10_2131,myproject,2021.2.3,59.86185405408151,
17,neutral,numbers,q',"(0, 100, 0)",,,,,,0,9,9,16,,,,,,,,,,,,,,,,,,,,,,,,,113.13186679198407,114.13215808407404,114.21557837503497,None,None,114.21557837503497,115.21605579205789,,,,,,,,,,,,,,,,,,,,,,,,,,,,7,001,2021_Dec_10_2131,myproject,2021.2.3,59.86185405408151,
16,neutral,condition,q',"(0, 100, 0)",,,,,,0,10,10,15,,,,,,,,,,,,,,,,,,,,,,,,,115.71550495899282,116.71530837507453,116.79888945899438,115.71550495899282,p,116.79888945899438,None,0.9126581239979714,,,,,,,,,,,,,,,,,,,,,,,,,,,7,001,2021_Dec_10_2131,myproject,2021.2.3,59.86185405408151,
1,positive,powerful,p',"(0, 100, 0)",,,,,,0,11,11,0,,,,,,,,,,,,,,,,,,,,,,,,,117.73267262498848,118.73210825002752,118.81557370908558,None,p,118.81557370908558,None,0.8017586250789464,,,,,,,,,,,,,,,,,,,,,,,,,,,7,001,2021_Dec_10_2131,myproject,2021.2.3,59.86185405408151,
7,positive,loving,p',"(0, 100, 0)",,,,,,0,12,12,6,,,,,,,,,,,,,,,,,,,,,,,,,119.64873908401933,120.64909462502692,120.73239949997514,None,p,120.73239949997514,None,0.9532975408947095,,,,,,,,,,,,,,,,,,,,,,,,,,,7,001,2021_Dec_10_2131,myproject,2021.2.3,59.86185405408151,
8,positive,joyful,p',"(0, 100, 0)",,,,,,0,13,13,7,,,,,,,,,,,,,,,,,,,,,,,,,121.71593525004573,122.71593725006096,122.79945575003512,None,p,122.79945575003512,None,0.9240443329326808,,,,,,,,,,,,,,,,,,,,,,,,,,,7,001,2021_Dec_10_2131,myproject,2021.2.3,59.86185405408151,
2,positive,optimistic,p',"(0, 100, 0)",,,,,,0,14,14,1,,,,,,,,,,,,,,,,,,,,,,,,,123.74925295903813,124.7493138340069,124.83283908409066,None,p,124.83283908409066,None,0.8475569990696386,,,,,,,,,,,,,,,,,,,,,,,,,,,7,001,2021_Dec_10_2131,myproject,2021.2.3,59.86185405408151,
4,positive,content,p',"(0, 100, 0)",,,,,,0,15,15,3,,,,,,,,,,,,,,,,,,,,,,,,,125.6994891250506,126.6991979170125,126.78264354204293,None,None,126.78264354204293,127.78233683400322,,,,,,,,,,,,,,,,,,,,,,,,,,,,7,001,2021_Dec_10_2131,myproject,2021.2.3,59.86185405408151,
19,neutral,moderate,q',"(0, 100, 0)",,,,,,0,16,16,18,,,,,,,,,,,,,,,,,,,,,,,,,128.28238358406816,129.28248066699598,129.36623183405027,128.28238358406816,None,129.36623183405027,130.3656582920812,,,,,,,,,,,,,,,,,,,,,,,,,,,,7,001,2021_Dec_10_2131,myproject,2021.2.3,59.86185405408151,
11,neutral,sweter,q',"(0, 100, 0)",,,,,,0,17,17,10,,,,,,,,,,,,,,,,,,,,,,,,,130.86558054201305,131.86604754207656,131.9494625000516,130.86558054201305,None,131.9494625000516,132.94934504199773,,,,,,,,,,,,,,,,,,,,,,,,,,,,7,001,2021_Dec_10_2131,myproject,2021.2.3,59.86185405408151,
5,positive,excited,p',"(0, 100, 0)",,,,,,0,18,18,4,,,,,,,,,,,,,,,,,,,,,,,,,133.44928120903205,134.44972337502986,134.53348325006664,133.44928120903205,p,134.53348325006664,None,0.8830276660155505,,,,,,,,,,,,,,,,,,,,,,,,,,,7,001,2021_Dec_10_2131,myproject,2021.2.3,59.86185405408151,
3,positive,interested,p',"(0, 100, 0)",,,,,,0,19,19,2,,,,,,,,,,,,,,,,,,,,,,,,,135.44940341706388,136.44950366707053,136.53289287502412,None,p,136.53289287502412,None,0.7478896239772439,,,,,,,,,,,,,,,,,,,,,,,,,,,7,001,2021_Dec_10_2131,myproject,2021.2.3,59.86185405408151,
9,neutral,formula,q',"(0, 100, 0)",,,,,,,,,,0,0,0,8,,,,,,,,,,,,,,,,,,,,,137.31262787501328,138.31623150000814,138.39959112508222,None,q,138.39959112508222,None,0.9211557069793344,,,,,,,,,,,,,,,,,,,,,,,,,,,7,001,2021_Dec_10_2131,myproject,2021.2.3,59.86185405408151,
16,negative,vulnerable,n',"(0, 100, 0)",,,,,,,,,,0,1,1,15,,,,,,,,,,,,,,,,,,,,,139.34954175003804,140.34965774999,140.43305141699966,None,None,140.43305141699966,141.43313850008417,,,,,,,,,,,,,,,,,,,,,,,,,,,,7,001,2021_Dec_10_2131,myproject,2021.2.3,59.86185405408151,
5,neutral,stone,q',"(0, 100, 0)",,,,,,,,,,0,2,2,4,,,,,,,,,,,,,,,,,,,,,141.93275945901405,142.93280416703783,143.0165633750148,141.93275945901405,None,143.0165633750148,144.0167023340473,,,,,,,,,,,,,,,,,,,,,,,,,,,,7,001,2021_Dec_10_2131,myproject,2021.2.3,59.86185405408151,
1,neutral,design,q',"(0, 100, 0)",,,,,,,,,,0,3,3,0,,,,,,,,,,,,,,,,,,,,,144.516667042044,145.51646433398128,145.59976333403029,144.516667042044,p,145.59976333403029,None,0.9038163740187883,,,,,,,,,,,,,,,,,,,,,,,,,,,7,001,2021_Dec_10_2131,myproject,2021.2.3,59.86185405408151,
19,negative,helpless,n',"(0, 100, 0)",,,,,,,,,,0,4,4,18,,,,,,,,,,,,,,,,,,,,,146.53296049998607,147.53302204201464,147.61733216699213,None,None,147.61733216699213,148.61625575006474,,,,,,,,,,,,,,,,,,,,,,,,,,,,7,001,2021_Dec_10_2131,myproject,2021.2.3,59.86185405408151,
13,negative,lonely,n',"(0, 100, 0)",,,,,,,,,,0,5,5,12,,,,,,,,,,,,,,,,,,,,,149.1167371670017,150.11650758399628,150.2004247920122,149.1167371670017,n,150.2004247920122,None,0.748347957036458,,,,,,,,,,,,,,,,,,,,,,,,,,,7,001,2021_Dec_10_2131,myproject,2021.2.3,59.86185405408151,
14,negative,anxious,n',"(0, 100, 0)",,,,,,,,,,0,6,6,13,,,,,,,,,,,,,,,,,,,,,150.96660220902413,151.96708270907402,152.049833917059,None,n,152.049833917059,None,0.6951164579950273,,,,,,,,,,,,,,,,,,,,,,,,,,,7,001,2021_Dec_10_2131,myproject,2021.2.3,59.86185405408151,
21,negative,vulnerable,n',"(0, 100, 0)",,,,,,,,,,0,7,7,20,,,,,,,,,,,,,,,,,,,,,152.76689183397684,153.7666728340555,153.850816084072,None,n,153.850816084072,None,0.7931843739934266,,,,,,,,,,,,,,,,,,,,,,,,,,,7,001,2021_Dec_10_2131,myproject,2021.2.3,59.86185405408151,
15,negative,bored,n',"(0, 100, 0)",,,,,,,,,,0,8,8,14,,,,,,,,,,,,,,,,,,,,,154.66681795904879,155.66684908408206,155.75018166704103,None,n,155.75018166704103,None,0.7555765830911696,,,,,,,,,,,,,,,,,,,,,,,,,,,7,001,2021_Dec_10_2131,myproject,2021.2.3,59.86185405408151,
2,neutral,syllabus,q',"(0, 100, 0)",,,,,,,,,,0,9,9,1,,,,,,,,,,,,,,,,,,,,,156.53385616699234,157.5334771249909,157.6169417090714,None,None,157.6169417090714,158.61791291704867,,,,,,,,,,,,,,,,,,,,,,,,,,,,7,001,2021_Dec_10_2131,myproject,2021.2.3,59.86185405408151,
6,neutral,joining,q',"(0, 100, 0)",,,,,,,,,,0,10,10,5,,,,,,,,,,,,,,,,,,,,,159.11695220903493,160.11718516703695,160.2000821250258,159.11695220903493,p,160.2000821250258,None,0.8270094989566132,,,,,,,,,,,,,,,,,,,,,,,,,,,7,001,2021_Dec_10_2131,myproject,2021.2.3,59.86185405408151,
4,neutral,window,q',"(0, 100, 0)",,,,,,,,,,0,11,11,3,,,,,,,,,,,,,,,,,,,,,161.0500812920509,162.05054637498688,162.1342330420157,None,None,162.1342330420157,163.13383795903064,,,,,,,,,,,,,,,,,,,,,,,,,,,,7,001,2021_Dec_10_2131,myproject,2021.2.3,59.86185405408151,
3,neutral,geography,q',"(0, 100, 0)",,,,,,,,,,0,12,12,2,,,,,,,,,,,,,,,,,,,,,163.63342254201416,164.63398983399384,164.71667624998372,163.63342254201416,q,164.71667624998372,None,0.8683019570307806,,,,,,,,,,,,,,,,,,,,,,,,,,,7,001,2021_Dec_10_2131,myproject,2021.2.3,59.86185405408151,
17,negative,guilty,n',"(0, 100, 0)",,,,,,,,,,0,13,13,16,,,,,,,,,,,,,,,,,,,,,165.61680791701656,166.6171502090292,166.7005464170361,None,None,166.7005464170361,167.7010391249787,,,,,,,,,,,,,,,,,,,,,,,,,,,,7,001,2021_Dec_10_2131,myproject,2021.2.3,59.86185405408151,
12,negative,hurt,n',"(0, 100, 0)",,,,,,,,,,0,14,14,11,,,,,,,,,,,,,,,,,,,,,168.20046387508046,169.20097258407623,169.28360387508292,168.20046387508046,n,169.28360387508292,None,0.6955250820610672,,,,,,,,,,,,,,,,,,,,,,,,,,,7,001,2021_Dec_10_2131,myproject,2021.2.3,59.86185405408151,
11,negative,depressed,n',"(0, 100, 0)",,,,,,,,,,0,15,15,10,,,,,,,,,,,,,,,,,,,,,170.00085358403157,171.00010070903227,171.08479462505784,None,n,171.08479462505784,None,0.6489680829690769,,,,,,,,,,,,,,,,,,,,,,,,,,,7,001,2021_Dec_10_2131,myproject,2021.2.3,59.86185405408151,
8,neutral,monotone,q',"(0, 100, 0)",,,,,,,,,,0,16,16,7,,,,,,,,,,,,,,,,,,,,,171.7506012499798,172.75034162506927,172.83421204204205,None,n,172.83421204204205,None,0.9119407080579549,,,,,,,,,,,,,,,,,,,,,,,,,,,7,001,2021_Dec_10_2131,myproject,2021.2.3,59.86185405408151,
18,negative,scared,n',"(0, 100, 0)",,,,,,,,,,0,17,17,17,,,,,,,,,,,,,,,,,,,,,173.76728970906697,174.76710541697685,174.85070933401585,None,n,174.85070933401585,None,0.6832072909455746,,,,,,,,,,,,,,,,,,,,,,,,,,,7,001,2021_Dec_10_2131,myproject,2021.2.3,59.86185405408151,
7,neutral,running,q',"(0, 100, 0)",,,,,,,,,,0,18,18,6,,,,,,,,,,,,,,,,,,,,,175.55044812499546,176.5518769590417,176.63495866698213,None,None,176.63495866698213,177.63421191705856,,,,,,,,,,,,,,,,,,,,,,,,,,,,7,001,2021_Dec_10_2131,myproject,2021.2.3,59.86185405408151,
20,negative,jealous,n',"(0, 100, 0)",,,,,,,,,,0,19,19,19,,,,,,,,,,,,,,,,,,,,,178.133944042027,179.1340088750003,179.2175620420603,178.133944042027,n,179.2175620420603,None,0.7776699570240453,,,,,,,,,,,,,,,,,,,,,,,,,,,7,001,2021_Dec_10_2131,myproject,2021.2.3,59.86185405408151,
10,neutral,letter,q',"(0, 100, 0)",,,,,,,,,,0,20,20,9,,,,,,,,,,,,,,,,,,,,,180.01784741703887,181.01774183404632,181.10111483407672,None,q,181.10111483407672,None,0.793071374995634,,,,,,,,,,,,,,,,,,,,,,,,,,,7,001,2021_Dec_10_2131,myproject,2021.2.3,59.86185405408151,
,,,,,,,,,,,,,,,,,,,,,,,,,,,,,,,,,,,,,,,,,,,,,,,,,,,,181.91774029203225,None,space,1.8305141660384834,181.91774029203225,None,,,,,,,,,,,,,,,7,001,2021_Dec_10_2131,myproject,2021.2.3,59.86185405408151,
4,positive,playful,p',,"(0, 0, 100)",,,,,,,,,,,,,0,0,0,3,,,,,,,,,,,,,,,,,,,,,,,,,,,,,,,,,,,,,183.78422383405268,184.78433045907877,184.86757329199463,None,p,0.9645334579981863,184.86757329199463,None,,,,,,,7,001,2021_Dec_10_2131,myproject,2021.2.3,59.86185405408151,
17,neutral,participating,q',,"(0, 100, 0)",,,,,,,,,,,,,0,1,1,16,,,,,,,,,,,,,,,,,,,,,,,,,,,,,,,,,,,,,185.85119675006717,186.85075570899062,186.93455058406107,None,None,,186.93455058406107,187.93511891702656,,,,,,,7,001,2021_Dec_10_2131,myproject,2021.2.3,59.86185405408151,
11,neutral,language,q',,"(0, 100, 0)",,,,,,,,,,,,,0,2,2,10,,,,,,,,,,,,,,,,,,,,,,,,,,,,,,,,,,,,,188.4339093749877,189.4341603340581,189.5176177920075,188.4339093749877,p,0.6884633740410209,189.5176177920075,None,,,,,,,7,001,2021_Dec_10_2131,myproject,2021.2.3,59.86185405408151,
2,positive,glad,p',,"(0, 100, 0)",,,,,,,,,,,,,0,3,3,1,,,,,,,,,,,,,,,,,,,,,,,,,,,,,,,,,,,,,190.23430979205295,191.23474841704592,191.31802383402828,None,p,0.8731511660153046,191.31802383402828,None,,,,,,,7,001,2021_Dec_10_2131,myproject,2021.2.3,59.86185405408151,
5,positive,amazed,p',,"(0, 100, 0)",,,,,,,,,,,,,0,4,4,4,,,,,,,,,,,,,,,,,,,,,,,,,,,,,,,,,,,,,192.2191417090362,193.21756433404516,193.31757158401888,None,p,0.7366295410320163,193.31757158401888,None,,,,,,,7,001,2021_Dec_10_2131,myproject,2021.2.3,59.86185405408151,
3,positive,happy,p',,"(100, 0, 0)",,,,,,,,,,,,,0,5,5,2,,,,,,,,,,,,,,,,,,,,,,,,,,,,,,,,,,,,,194.08491054200567,195.08429008407984,195.1678894170327,None,p,0.932231331942603,195.1678894170327,None,,,,,,,7,001,2021_Dec_10_2131,myproject,2021.2.3,59.86185405408151,
13,neutral,numbers,q',,"(0, 0, 100)",,,,,,,,,,,,,0,6,6,12,,,,,,,,,,,,,,,,,,,,,,,,,,,,,,,,,,,,,196.1182431250345,197.11787945905235,197.2020332920365,None,q,0.874260374926962,197.2020332920365,None,,,,,,,7,001,2021_Dec_10_2131,myproject,2021.2.3,59.86185405408151,
8,positive,free,p',,"(0, 100, 0)",,,,,,,,,,,,,0,7,7,7,,,,,,,,,,,,,,,,,,,,,,,,,,,,,,,,,,,,,198.10092175006866,199.1012246250175,199.18491333408747,None,p,0.8693032069131732,199.18491333408747,None,,,,,,,7,001,2021_Dec_10_2131,myproject,2021.2.3,59.86185405408151,
19,neutral,telephone,q',,"(100, 0, 0)",,,,,,,,,,,,,0,8,8,18,,,,,,,,,,,,,,,,,,,,,,,,,,,,,,,,,,,,,200.0847202920122,201.08518466702662,201.1678062500432,None,q,0.92856562405359,201.1678062500432,None,,,,,,,7,001,2021_Dec_10_2131,myproject,2021.2.3,59.86185405408151,
9,positive,joyful,p',,"(100, 0, 0)",,,,,,,,,,,,,0,9,9,8,,,,,,,,,,,,,,,,,,,,,,,,,,,,,,,,,,,,,202.11832916701678,203.11806858400814,203.20215595897753,None,p,0.7311135000782087,203.20215595897753,None,,,,,,,7,001,2021_Dec_10_2131,myproject,2021.2.3,59.86185405408151,
20,neutral,carbonate,q',,"(100, 0, 0)",,,,,,,,,,,,,0,10,10,19,,,,,,,,,,,,,,,,,,,,,,,,,,,,,,,,,,,,,203.95167058403604,204.95145654201042,205.03452920902055,None,None,,205.03452920902055,206.0345230420353,,,,,,,7,001,2021_Dec_10_2131,myproject,2021.2.3,59.86185405408151,
10,positive,calm,p',,"(0, 0, 100)",,,,,,,,,,,,,0,11,11,9,,,,,,,,,,,,,,,,,,,,,,,,,,,,,,,,,,,,,206.5344227090245,207.5346918340074,207.61783233401366,206.5344227090245,p,0.9277181660290807,207.61783233401366,None,,,,,,,7,001,2021_Dec_10_2131,myproject,2021.2.3,59.86185405408151,
6,positive,valued,p',,"(100, 0, 0)",,,,,,,,,,,,,0,12,12,5,,,,,,,,,,,,,,,,,,,,,,,,,,,,,,,,,,,,,208.5677687090356,209.56797933403868,209.65189762506634,None,p,0.7776698330417275,209.65189762506634,None,,,,,,,7,001,2021_Dec_10_2131,myproject,2021.2.3,59.86185405408151,
18,neutral,collecting,q',,"(100, 0, 0)",,,,,,,,,,,,,0,13,13,17,,,,,,,,,,,,,,,,,,,,,,,,,,,,,,,,,,,,,210.45247154205572,211.4517287920462,211.53519266704097,None,q,0.9604198319138959,211.53519266704097,None,,,,,,,7,001,2021_Dec_10_2131,myproject,2021.2.3,59.86185405408151,
1,positive,proud,p',,"(0, 0, 100)",,,,,,,,,,,,,0,14,14,0,,,,,,,,,,,,,,,,,,,,,,,,,,,,,,,,,,,,,212.5181275419891,213.5181478339946,213.60170641704462,None,p,0.6447378740413114,213.60170641704462,None,,,,,,,7,001,2021_Dec_10_2131,myproject,2021.2.3,59.86185405408151,
15,neutral,moderate,q',,"(100, 0, 0)",,,,,,,,,,,,,0,15,15,14,,,,,,,,,,,,,,,,,,,,,,,,,,,,,,,,,,,,,214.26858837506734,215.2684221250238,215.3519484170247,None,q,0.9435557500692084,215.3519484170247,None,,,,,,,7,001,2021_Dec_10_2131,myproject,2021.2.3,59.86185405408151,
14,neutral,ceiling,q',,"(0, 100, 0)",,,,,,,,,,,,,0,16,16,13,,,,,,,,,,,,,,,,,,,,,,,,,,,,,,,,,,,,,216.31836966704577,217.31821029202547,217.40170729206875,None,q,0.9335755830397829,217.40170729206875,None,,,,,,,7,001,2021_Dec_10_2131,myproject,2021.2.3,59.86185405408151,
12,neutral,condition,q',,"(100, 0, 0)",,,,,,,,,,,,,0,17,17,11,,,,,,,,,,,,,,,,,,,,,,,,,,,,,,,,,,,,,218.35218074999284,219.35147983406205,219.43569033406675,None,None,,219.43569033406675,220.43510670901742,,,,,,,7,001,2021_Dec_10_2131,myproject,2021.2.3,59.86185405408151,
16,neutral,designating,q',,"(0, 0, 100)",,,,,,,,,,,,,0,18,18,15,,,,,,,,,,,,,,,,,,,,,,,,,,,,,,,,,,,,,220.93481195904315,221.93501445907168,222.01859624998178,220.93481195904315,None,,222.01859624998178,223.0185336250579,,,,,,,7,001,2021_Dec_10_2131,myproject,2021.2.3,59.86185405408151,
7,positive,respected,p',,"(0, 0, 100)",,,,,,,,,,,,,0,19,19,6,,,,,,,,,,,,,,,,,,,,,,,,,,,,,,,,,,,,,223.51825337507762,224.51898379204795,224.6022333339788,223.51825337507762,p,0.8742504159454256,224.6022333339788,None,,,,,,,7,001,2021_Dec_10_2131,myproject,2021.2.3,59.86185405408151,
10,neutral,editing,q',,"(0, 0, 100)",,,,,,,,,,,,,,,,,0,0,0,9,,,,,,,,,,,,,,,,,,,,,,,,,,,,,,,,,225.51890591706615,226.51860075001605,226.60209070902783,None,None,,226.60209070902783,227.6018332920503,,,,,,,7,001,2021_Dec_10_2131,myproject,2021.2.3,59.86185405408151,
16,negative,embarrassed,n',,"(0, 0, 100)",,,,,,,,,,,,,,,,,0,1,1,15,,,,,,,,,,,,,,,,,,,,,,,,,,,,,,,,,228.10184070898686,229.10235416702926,229.18545975000598,228.10184070898686,None,,229.18545975000598,230.18545820901636,,,,,,,7,001,2021_Dec_10_2131,myproject,2021.2.3,59.86185405408151,
6,neutral,style,q',,"(100, 0, 0)",,,,,,,,,,,,,,,,,0,2,2,5,,,,,,,,,,,,,,,,,,,,,,,,,,,,,,,,,230.6850019589765,231.6854167090496,231.76870083401445,230.6850019589765,p,0.724914081976749,231.76870083401445,None,,,,,,,7,001,2021_Dec_10_2131,myproject,2021.2.3,59.86185405408151,
18,negative,victimised,n',,"(100, 0, 0)",,,,,,,,,,,,,,,,,0,3,3,17,,,,,,,,,,,,,,,,,,,,,,,,,,,,,,,,,232.51928008405957,233.51872983400244,233.6022274590796,None,n,0.7743325830670074,233.6022274590796,None,,,,,,,7,001,2021_Dec_10_2131,myproject,2021.2.3,59.86185405408151,
13,negative,stressed,n',,"(0, 0, 100)",,,,,,,,,,,,,,,,,0,4,4,12,,,,,,,,,,,,,,,,,,,,,,,,,,,,,,,,,234.402115667006,235.40226016705856,235.48538266704418,None,None,,235.48538266704418,236.48551104206126,,,,,,,7,001,2021_Dec_10_2131,myproject,2021.2.3,59.86185405408151,
2,neutral,syllabus,q',,"(0, 100, 0)",,,,,,,,,,,,,,,,,0,5,5,1,,,,,,,,,,,,,,,,,,,,,,,,,,,,,,,,,236.98564591701142,237.9863873340655,238.06889975001104,236.98564591701142,None,,238.06889975001104,239.06882762501482,,,,,,,7,001,2021_Dec_10_2131,myproject,2021.2.3,59.86185405408151,
3,neutral,geography,q',,"(100, 0, 0)",,,,,,,,,,,,,,,,,0,6,6,2,,,,,,,,,,,,,,,,,,,,,,,,,,,,,,,,,239.56884016701952,240.56876387505326,240.65248266700655,239.56884016701952,None,,240.65248266700655,241.65223412506748,,,,,,,7,001,2021_Dec_10_2131,myproject,2021.2.3,59.86185405408151,
7,neutral,mapping,q',,"(0, 0, 100)",,,,,,,,,,,,,,,,,0,7,7,6,,,,,,,,,,,,,,,,,,,,,,,,,,,,,,,,,242.15246833406854,243.15228645899333,243.23659191699699,242.15246833406854,None,,243.23659191699699,244.2363489170093,,,,,,,7,001,2021_Dec_10_2131,myproject,2021.2.3,59.86185405408151,
14,negative,guilty,n',,"(0, 100, 0)",,,,,,,,,,,,,,,,,0,8,8,13,,,,,,,,,,,,,,,,,,,,,,,,,,,,,,,,,244.7357009589905,245.73582854203414,245.81938608398195,244.7357009589905,None,,245.81938608398195,246.8197185000172,,,,,,,7,001,2021_Dec_10_2131,myproject,2021.2.3,59.86185405408151,
8,neutral,seventeen,q',,"(0, 100, 0)",,,,,,,,,,,,,,,,,0,9,9,7,,,,,,,,,,,,,,,,,,,,,,,,,,,,,,,,,247.3189218339976,248.31929012504406,248.4027207089821,247.3189218339976,None,,248.4027207089821,249.4029275419889,,,,,,,7,001,2021_Dec_10_2131,myproject,2021.2.3,59.86185405408151,
20,negative,fearful,n',,"(100, 0, 0)",,,,,,,,,,,,,,,,,0,10,10,19,,,,,,,,,,,,,,,,,,,,,,,,,,,,,,,,,249.90299704205245,250.9024319590535,250.98613983404357,249.90299704205245,n,0.9546219579642639,250.98613983404357,None,,,,,,,7,001,2021_Dec_10_2131,myproject,2021.2.3,59.86185405408151,
17,negative,grief,n',,"(0, 100, 0)",,,,,,,,,,,,,,,,,0,11,11,16,,,,,,,,,,,,,,,,,,,,,,,,,,,,,,,,,251.96931095898617,252.9691035420401,253.05336516699754,None,None,,253.05336516699754,254.05264333402738,,,,,,,7,001,2021_Dec_10_2131,myproject,2021.2.3,59.86185405408151,
19,negative,tired,n',,"(100, 0, 0)",,,,,,,,,,,,,,,,,0,12,12,18,,,,,,,,,,,,,,,,,,,,,,,,,,,,,,,,,254.5523411250906,255.5531931250589,255.63638012507,254.5523411250906,n,0.8765269159339368,255.63638012507,None,,,,,,,7,001,2021_Dec_10_2131,myproject,2021.2.3,59.86185405408151,
4,neutral,vegetable,q',,"(0, 0, 100)",,,,,,,,,,,,,,,,,0,13,13,3,,,,,,,,,,,,,,,,,,,,,,,,,,,,,,,,,256.53687945904676,257.5368542500073,257.61963433399796,None,q,0.9501431660028175,257.61963433399796,None,,,,,,,7,001,2021_Dec_10_2131,myproject,2021.2.3,59.86185405408151,
15,negative,hostile,n',,"(100, 0, 0)",,,,,,,,,,,,,,,,,0,14,14,14,,,,,,,,,,,,,,,,,,,,,,,,,,,,,,,,,258.58674629207235,259.58615987503435,259.6696403750684,None,n,0.6831551659852266,259.6696403750684,None,,,,,,,7,001,2021_Dec_10_2131,myproject,2021.2.3,59.86185405408151,
11,negative,critical,n',,"(0, 100, 0)",,,,,,,,,,,,,,,,,0,15,15,10,,,,,,,,,,,,,,,,,,,,,,,,,,,,,,,,,260.3699852920836,261.3699758340372,261.453261375078,None,n,0.832549124956131,261.453261375078,None,,,,,,,7,001,2021_Dec_10_2131,myproject,2021.2.3,59.86185405408151,
5,neutral,glasses,q',,"(0, 100, 0)",,,,,,,,,,,,,,,,,0,16,16,4,,,,,,,,,,,,,,,,,,,,,,,,,,,,,,,,,262.30360850004945,263.3028158750385,263.38648883404676,None,q,0.8437071660300717,263.38648883404676,None,,,,,,,7,001,2021_Dec_10_2131,myproject,2021.2.3,59.86185405408151,
9,neutral,photo,q',,"(100, 0, 0)",,,,,,,,,,,,,,,,,0,17,17,8,,,,,,,,,,,,,,,,,,,,,,,,,,,,,,,,,264.25350120908115,265.25291158398613,265.3362879999913,None,None,,265.3362879999913,266.3368020420894,,,,,,,7,001,2021_Dec_10_2131,myproject,2021.2.3,59.86185405408151,
1,neutral,design,q',,"(0, 0, 100)",,,,,,,,,,,,,,,,,0,18,18,0,,,,,,,,,,,,,,,,,,,,,,,,,,,,,,,,,266.83615620899945,267.83615983405616,267.9199532089988,266.83615620899945,n,0.736853998969309,267.9199532089988,None,,,,,,,7,001,2021_Dec_10_2131,myproject,2021.2.3,59.86185405408151,
12,negative,annoyed,n',,"(100, 0, 0)",,,,,,,,,,,,,,,,,0,19,19,11,,,,,,,,,,,,,,,,,,,,,,,,,,,,,,,,,268.68646375008393,269.6867241250584,269.7702146670781,None,n,0.8677332489751279,269.7702146670781,None,,,,,,,7,001,2021_Dec_10_2131,myproject,2021.2.3,59.86185405408151,
,,,,,,,,,,,,,,,,,,,,,,,,,,,,,,,,,,,,,,,,,,,,,,,,,,,,,,,,,,,,,,,,,,270.6696763749933,None,space,2.387228498933837,270.6696763749933,None,7,001,2021_Dec_10_2131,myproject,2021.2.3,59.86185405408151,
